# accelerometer data
# file: 'rgbd_dataset_freiburg1_desk.bag'
# timestamp ax ay az
1305031449.564825 -0.083818 7.244229 -6.657506
1305031449.565779 -0.083818 7.244229 -6.657506
1305031449.569452 -0.275400 7.268176 -6.849089
1305031449.570435 -0.275400 7.268176 -6.849089
1305031449.571694 -0.275400 7.268176 -6.849089
1305031449.572768 -0.275400 7.268176 -6.849089
1305031449.575951 -0.275400 7.268176 -6.849089
1305031449.576935 -0.275400 7.268176 -6.849089
1305031449.580569 -0.275400 7.256203 -6.849089
1305031449.581554 -0.275400 7.256203 -6.849089
1305031449.584841 -0.191583 7.244229 -7.016724
1305031449.585809 -0.191583 7.244229 -7.016724
1305031449.589409 -0.299348 7.292124 -6.849089
1305031449.590410 -0.299348 7.292124 -6.849089
1305031449.591694 -0.299348 7.292124 -6.849089
1305031449.592721 -0.299348 7.292124 -6.849089
1305031449.595954 -0.287374 7.435812 -6.753297
1305031449.596977 -0.287374 7.435812 -6.753297
1305031449.600461 -0.478957 7.340020 -6.657506
1305031449.601568 -0.478957 7.340020 -6.657506
1305031449.604822 -0.478957 7.292124 -6.633558
1305031449.605805 -0.478957 7.292124 -6.633558
1305031449.609392 -0.275400 7.340020 -6.465923
1305031449.610437 -0.275400 7.340020 -6.465923
1305031449.611676 -0.275400 7.340020 -6.465923
1305031449.612822 -0.275400 7.340020 -6.465923
1305031449.615953 -0.275400 7.435812 -6.657506
1305031449.616947 -0.275400 7.435812 -6.657506
1305031449.620570 -0.263426 7.292124 -6.465923
1305031449.621600 -0.263426 7.292124 -6.465923
1305031449.624820 -0.275400 7.244229 -6.657506
1305031449.625804 -0.275400 7.244229 -6.657506
1305031449.629321 -0.083818 7.220281 -6.633558
1305031449.630447 -0.083818 7.220281 -6.633558
1305031449.631732 -0.083818 7.220281 -6.633558
1305031449.632699 -0.083818 7.220281 -6.633558
1305031449.635940 -0.083818 7.244229 -6.561715
1305031449.636944 -0.083818 7.244229 -6.561715
1305031449.640540 0.011974 7.232255 -6.274340
1305031449.641570 0.011974 7.232255 -6.274340
1305031449.644862 -0.275400 7.196333 -6.322236
1305031449.645805 -0.275400 7.196333 -6.322236
1305031449.649399 -0.083818 7.052646 -6.657506
1305031449.650574 -0.083818 7.052646 -6.657506
1305031449.651696 -0.083818 7.052646 -6.657506
1305031449.652838 -0.083818 7.052646 -6.657506
1305031449.655805 -0.083818 7.052646 -6.705402
1305031449.656946 -0.083818 7.052646 -6.705402
1305031449.660466 -0.239479 7.148437 -6.705402
1305031449.661593 -0.239479 7.148437 -6.705402
1305031449.664822 -0.083818 7.148437 -6.849089
1305031449.665802 -0.083818 7.148437 -6.849089
1305031449.669332 -0.263426 7.244229 -6.849089
1305031449.670446 -0.263426 7.244229 -6.849089
1305031449.671696 -0.263426 7.244229 -6.849089
1305031449.672682 -0.263426 7.244229 -6.849089
1305031449.675827 -0.275400 7.435812 -7.040672
1305031449.676802 -0.275400 7.435812 -7.040672
1305031449.680497 -0.275400 7.340020 -6.849089
1305031449.681582 -0.275400 7.340020 -6.849089
1305031449.684739 -0.083818 7.531603 -7.040672
1305031449.685661 -0.083818 7.531603 -7.040672
1305031449.686953 -0.083818 7.531603 -7.040672
1305031449.688075 -0.083818 7.531603 -7.040672
1305031449.691586 -0.371192 7.531603 -6.944880
1305031449.692700 -0.371192 7.531603 -6.944880
1305031449.695954 -0.275400 7.435812 -6.849089
1305031449.696966 -0.275400 7.435812 -6.849089
1305031449.700550 -0.275400 7.244229 -6.849089
1305031449.701535 -0.275400 7.244229 -6.849089
1305031449.704822 -0.083818 7.268176 -6.753297
1305031449.705819 -0.083818 7.268176 -6.753297
1305031449.709403 -0.083818 7.244229 -6.669480
1305031449.710573 -0.083818 7.244229 -6.669480
1305031449.711716 -0.083818 7.244229 -6.669480
1305031449.712717 -0.083818 7.244229 -6.669480
1305031449.715948 -0.191583 7.148437 -6.645532
1305031449.716987 -0.191583 7.148437 -6.645532
1305031449.720463 -0.083818 7.052646 -6.465923
1305031449.721592 -0.083818 7.052646 -6.465923
1305031449.724861 -0.191583 7.148437 -6.370132
1305031449.725815 -0.191583 7.148437 -6.370132
1305031449.729403 0.107765 6.885011 -6.465923
1305031449.730539 0.107765 6.885011 -6.465923
1305031449.731849 0.107765 6.885011 -6.465923
1305031449.732852 0.107765 6.885011 -6.465923
1305031449.735945 -0.083818 6.956854 -6.370132
1305031449.736948 -0.083818 6.956854 -6.370132
1305031449.740556 -0.083818 7.052646 -6.274340
1305031449.741581 -0.083818 7.052646 -6.274340
1305031449.744861 0.059870 6.956854 -6.274340
1305031449.745825 0.059870 6.956854 -6.274340
1305031449.749406 -0.083818 7.148437 -6.274340
1305031449.750573 -0.083818 7.148437 -6.274340
1305031449.751677 -0.083818 7.148437 -6.274340
1305031449.752859 -0.083818 7.148437 -6.274340
1305031449.755954 0.011974 7.196333 -6.226444
1305031449.756956 0.011974 7.196333 -6.226444
1305031449.760573 0.059870 7.148437 -6.465923
1305031449.761616 0.059870 7.148437 -6.465923
1305031449.764828 0.095791 7.220281 -6.370132
1305031449.765801 0.095791 7.220281 -6.370132
1305031449.769485 0.107765 7.220281 -6.633558
1305031449.770448 0.107765 7.220281 -6.633558
1305031449.771696 0.107765 7.220281 -6.633558
1305031449.772711 0.107765 7.220281 -6.633558
1305031449.775912 0.059870 7.340020 -6.609610
1305031449.776927 0.059870 7.340020 -6.609610
1305031449.780563 0.095791 7.435812 -6.465923
1305031449.781592 0.095791 7.435812 -6.465923
1305031449.784830 0.107765 7.340020 -6.705402
1305031449.785795 0.107765 7.340020 -6.705402
1305031449.789402 -0.083818 7.627394 -6.370132
1305031449.790570 -0.083818 7.627394 -6.370132
1305031449.791708 -0.083818 7.627394 -6.370132
1305031449.792865 -0.083818 7.627394 -6.370132
1305031449.795949 0.011974 7.435812 -6.657506
1305031449.796949 0.011974 7.435812 -6.657506
1305031449.800569 0.095791 7.244229 -6.681454
1305031449.801597 0.095791 7.244229 -6.681454
1305031449.804820 0.107765 7.244229 -6.753297
1305031449.805825 0.107765 7.244229 -6.753297
1305031449.809321 0.095791 7.268176 -6.669480
1305031449.810441 0.095791 7.268176 -6.669480
1305031449.811668 0.095791 7.268176 -6.669480
1305031449.812697 0.095791 7.268176 -6.669480
1305031449.815973 0.059870 7.292124 -6.370132
1305031449.816947 0.059870 7.292124 -6.370132
1305031449.820537 0.119739 7.292124 -6.465923
1305031449.821581 0.119739 7.292124 -6.465923
1305031449.824850 0.095791 7.244229 -6.465923
1305031449.825799 0.095791 7.244229 -6.465923
1305031449.829395 0.107765 7.244229 -6.465923
1305031449.830402 0.107765 7.244229 -6.465923
1305031449.831733 0.107765 7.244229 -6.465923
1305031449.832682 0.107765 7.244229 -6.465923
1305031449.835812 0.107765 7.244229 -6.274340
1305031449.836946 0.107765 7.244229 -6.274340
1305031449.840556 0.107765 7.196333 -6.082757
1305031449.841554 0.107765 7.196333 -6.082757
1305031449.844820 0.011974 7.052646 -5.986966
1305031449.845803 0.011974 7.052646 -5.986966
1305031449.849415 0.095791 7.148437 -6.178549
1305031449.850538 0.095791 7.148437 -6.178549
1305031449.851676 0.095791 7.148437 -6.178549
1305031449.852824 0.095791 7.148437 -6.178549
1305031449.855945 0.011974 7.148437 -5.903148
1305031449.856936 0.011974 7.148437 -5.903148
1305031449.860595 0.107765 7.052646 -6.082757
1305031449.861695 0.107765 7.052646 -6.082757
1305031449.864819 0.107765 6.956854 -6.226444
1305031449.865946 0.107765 6.956854 -6.226444
1305031449.869600 0.107765 7.148437 -6.274340
1305031449.870583 0.107765 7.148437 -6.274340
1305031449.871679 0.107765 7.148437 -6.274340
1305031449.872681 0.107765 7.148437 -6.274340
1305031449.875948 -0.083818 7.148437 -6.465923
1305031449.876930 -0.083818 7.148437 -6.465923
1305031449.880569 0.095791 7.052646 -6.849089
1305031449.881592 0.095791 7.052646 -6.849089
1305031449.884821 0.095791 7.148437 -6.705402
1305031449.885916 0.095791 7.148437 -6.705402
1305031449.889463 0.107765 7.244229 -6.681454
1305031449.890433 0.107765 7.244229 -6.681454
1305031449.891711 0.107765 7.244229 -6.681454
1305031449.892782 0.107765 7.244229 -6.681454
1305031449.895973 0.095791 7.244229 -6.849089
1305031449.896954 0.095791 7.244229 -6.849089
1305031449.900551 0.083818 7.435812 -6.849089
1305031449.901570 0.083818 7.435812 -6.849089
1305031449.904810 0.059870 7.435812 -6.681454
1305031449.905802 0.059870 7.435812 -6.681454
1305031449.909414 -0.191583 7.435812 -6.609610
1305031449.910470 -0.191583 7.435812 -6.609610
1305031449.911732 -0.191583 7.435812 -6.609610
1305031449.912719 -0.191583 7.435812 -6.609610
1305031449.915946 -0.275400 7.435812 -6.753297
1305031449.916967 -0.275400 7.435812 -6.753297
1305031449.920558 -0.287374 7.292124 -6.561715
1305031449.921575 -0.287374 7.292124 -6.561715
1305031449.924834 -0.275400 7.340020 -6.753297
1305031449.925804 -0.275400 7.340020 -6.753297
1305031449.929417 -0.239479 7.292124 -6.633558
1305031449.930467 -0.239479 7.292124 -6.633558
1305031449.931697 -0.239479 7.292124 -6.633558
1305031449.932707 -0.239479 7.292124 -6.633558
1305031449.935952 -0.478957 7.531603 -6.370132
1305031449.936965 -0.478957 7.531603 -6.370132
1305031449.940583 -0.371192 7.531603 -6.274340
1305031449.941589 -0.371192 7.531603 -6.274340
1305031449.944823 -0.478957 7.435812 -6.274340
1305031449.945970 -0.478957 7.435812 -6.274340
1305031449.949407 -0.275400 7.268176 -6.298288
1305031449.950550 -0.275400 7.268176 -6.298288
1305031449.951679 -0.275400 7.268176 -6.298288
1305031449.952819 -0.275400 7.268176 -6.298288
1305031449.955788 -0.275400 7.244229 -6.298288
1305031449.956947 -0.275400 7.244229 -6.298288
1305031449.960594 -0.371192 7.244229 -5.986966
1305031449.961601 -0.371192 7.244229 -5.986966
1305031449.964830 -0.478957 7.148437 -6.082757
1305031449.965833 -0.478957 7.148437 -6.082757
1305031449.969421 -0.478957 7.052646 -6.082757
1305031449.970431 -0.478957 7.052646 -6.082757
1305031449.971682 -0.478957 7.052646 -6.082757
1305031449.972679 -0.478957 7.052646 -6.082757
1305031449.975948 -0.478957 7.052646 -5.986966
1305031449.976945 -0.478957 7.052646 -5.986966
1305031449.980574 -0.275400 6.873037 -6.178549
1305031449.981613 -0.275400 6.873037 -6.178549
1305031449.984850 -0.478957 7.052646 -6.082757
1305031449.985951 -0.478957 7.052646 -6.082757
1305031449.989408 -0.478957 7.148437 -6.082757
1305031449.990433 -0.478957 7.148437 -6.082757
1305031449.991697 -0.478957 7.148437 -6.082757
1305031449.992700 -0.478957 7.148437 -6.082757
1305031449.995964 -0.371192 7.244229 -5.986966
1305031449.996948 -0.371192 7.244229 -5.986966
1305031450.000621 -0.478957 7.052646 -6.082757
1305031450.001695 -0.478957 7.052646 -6.082757
1305031450.004825 -0.574749 7.052646 -6.274340
1305031450.005792 -0.574749 7.052646 -6.274340
1305031450.009401 -0.478957 6.956854 -6.274340
1305031450.010451 -0.478957 6.956854 -6.274340
1305031450.011680 -0.478957 6.956854 -6.274340
1305031450.012831 -0.478957 6.956854 -6.274340
1305031450.015983 -0.622644 7.052646 -6.178549
1305031450.016961 -0.622644 7.052646 -6.178549
1305031450.020558 -0.658566 6.908959 -6.298288
1305031450.021732 -0.658566 6.908959 -6.298288
1305031450.024823 -0.658566 7.148437 -6.226444
1305031450.025805 -0.658566 7.148437 -6.226444
1305031450.029459 -0.658566 7.232255 -6.274340
1305031450.030466 -0.658566 7.232255 -6.274340
1305031450.031723 -0.658566 7.232255 -6.274340
1305031450.032680 -0.658566 7.232255 -6.274340
1305031450.035930 -0.646592 7.244229 -6.465923
1305031450.036945 -0.646592 7.244229 -6.465923
1305031450.040602 -0.754358 7.340020 -6.274340
1305031450.041602 -0.754358 7.340020 -6.274340
1305031450.044833 -0.754358 7.435812 -6.370132
1305031450.045827 -0.754358 7.435812 -6.370132
1305031450.049404 -0.754358 7.435812 -6.657506
1305031450.050582 -0.754358 7.435812 -6.657506
1305031450.051676 -0.754358 7.435812 -6.657506
1305031450.052687 -0.754358 7.435812 -6.657506
1305031450.055917 -0.754358 7.268176 -6.609610
1305031450.056937 -0.754358 7.268176 -6.609610
1305031450.060566 -0.706462 7.244229 -6.609610
1305031450.061577 -0.706462 7.244229 -6.609610
1305031450.064822 -0.658566 7.052646 -6.705402
1305031450.065984 -0.658566 7.052646 -6.705402
1305031450.069447 -0.670540 7.052646 -6.849089
1305031450.070434 -0.670540 7.052646 -6.849089
1305031450.071677 -0.670540 7.052646 -6.849089
1305031450.072683 -0.670540 7.052646 -6.849089
1305031450.075797 -0.670540 7.052646 -6.849089
1305031450.076804 -0.670540 7.052646 -6.849089
1305031450.080584 -0.658566 6.861063 -6.944880
1305031450.081595 -0.658566 6.861063 -6.944880
1305031450.084819 -0.658566 6.861063 -6.849089
1305031450.085804 -0.658566 6.861063 -6.849089
1305031450.089499 -0.682514 6.861063 -6.992776
1305031450.090460 -0.682514 6.861063 -6.992776
1305031450.091695 -0.682514 6.861063 -6.992776
1305031450.092683 -0.682514 6.861063 -6.992776
1305031450.095809 -0.706462 6.849089 -6.944880
1305031450.096950 -0.706462 6.849089 -6.944880
1305031450.100621 -0.658566 6.669480 -7.136463
1305031450.101555 -0.658566 6.669480 -7.136463
1305031450.104825 -0.754358 6.765271 -7.136463
1305031450.105855 -0.754358 6.765271 -7.136463
1305031450.109411 -0.658566 6.861063 -7.040672
1305031450.110462 -0.658566 6.861063 -7.040672
1305031450.111707 -0.658566 6.861063 -7.040672
1305031450.112685 -0.658566 6.861063 -7.040672
1305031450.115976 -0.754358 6.956854 -6.753297
1305031450.116954 -0.754358 6.956854 -6.753297
1305031450.120544 -0.706462 7.052646 -7.040672
1305031450.121574 -0.706462 7.052646 -7.040672
1305031450.124867 -1.005810 6.956854 -7.016724
1305031450.125820 -1.005810 6.956854 -7.016724
1305031450.129597 -0.850149 7.220281 -6.849089
1305031450.130546 -0.850149 7.220281 -6.849089
1305031450.131710 -0.850149 7.220281 -6.849089
1305031450.132854 -0.850149 7.220281 -6.849089
1305031450.135956 -0.850149 7.052646 -7.040672
1305031450.136951 -0.850149 7.052646 -7.040672
1305031450.140624 -1.053706 7.148437 -6.944880
1305031450.141582 -1.053706 7.148437 -6.944880
1305031450.144864 -1.053706 7.220281 -6.849089
1305031450.145811 -1.053706 7.220281 -6.849089
1305031450.149410 -1.053706 7.232255 -6.944880
1305031450.150435 -1.053706 7.232255 -6.944880
1305031450.151706 -1.053706 7.232255 -6.944880
1305031450.152697 -1.053706 7.232255 -6.944880
1305031450.155951 -1.137524 7.340020 -6.705402
1305031450.156953 -1.137524 7.340020 -6.705402
1305031450.160530 -1.053706 7.244229 -7.040672
1305031450.161611 -1.053706 7.244229 -7.040672
1305031450.164872 -1.053706 7.244229 -6.753297
1305031450.165810 -1.053706 7.244229 -6.753297
1305031450.169609 -1.137524 7.244229 -7.040672
1305031450.170577 -1.137524 7.244229 -7.040672
1305031450.171711 -1.137524 7.244229 -7.040672
1305031450.172686 -1.137524 7.244229 -7.040672
1305031450.175951 -1.053706 7.196333 -6.849089
1305031450.176988 -1.053706 7.196333 -6.849089
1305031450.180560 -1.041732 7.052646 -7.040672
1305031450.181540 -1.041732 7.052646 -7.040672
1305031450.184873 -1.053706 7.052646 -7.040672
1305031450.185827 -1.053706 7.052646 -7.040672
1305031450.189368 -0.670540 6.956854 -6.944880
1305031450.190615 -0.670540 6.956854 -6.944880
1305031450.191557 -0.670540 6.956854 -6.944880
1305031450.194824 -0.670540 6.669480 -6.657506
1305031450.195829 -0.670540 6.669480 -6.657506
1305031450.197333 -0.670540 6.669480 -6.657506
1305031450.198457 -0.670540 6.669480 -6.657506
1305031450.201824 -0.574749 6.489871 -6.681454
1305031450.202808 -0.574749 6.489871 -6.681454
1305031450.205915 -0.622644 6.477897 -6.681454
1305031450.206933 -0.622644 6.477897 -6.681454
1305031450.210581 -0.478957 6.286314 -6.681454
1305031450.211598 -0.478957 6.286314 -6.681454
1305031450.214829 -0.275400 6.190523 -6.465923
1305031450.215813 -0.275400 6.190523 -6.465923
1305031450.219460 -0.275400 6.094731 -6.657506
1305031450.220438 -0.275400 6.094731 -6.657506
1305031450.221827 -0.275400 6.094731 -6.657506
1305031450.222858 -0.275400 6.094731 -6.657506
1305031450.225950 -0.275400 5.903148 -6.561715
1305031450.226952 -0.275400 5.903148 -6.561715
1305031450.230474 -0.275400 5.903148 -6.561715
1305031450.231460 -0.275400 5.903148 -6.561715
1305031450.234827 -0.478957 6.094731 -6.370132
1305031450.235832 -0.478957 6.094731 -6.370132
1305031450.237082 -0.478957 6.094731 -6.370132
1305031450.238462 -0.478957 6.094731 -6.370132
1305031450.241826 -0.478957 6.106705 -6.849089
1305031450.242866 -0.478957 6.106705 -6.849089
1305031450.245951 -0.478957 6.286314 -6.992776
1305031450.246963 -0.478957 6.286314 -6.992776
1305031450.250578 -0.622644 6.286314 -7.040672
1305031450.251575 -0.622644 6.286314 -7.040672
1305031450.254852 -0.658566 6.453949 -7.040672
1305031450.255813 -0.658566 6.453949 -7.040672
1305031450.259439 -0.670540 6.669480 -7.232255
1305031450.260468 -0.670540 6.669480 -7.232255
1305031450.261687 -0.670540 6.669480 -7.232255
1305031450.262831 -0.670540 6.669480 -7.232255
1305031450.265952 -0.754358 6.765271 -7.040672
1305031450.266947 -0.754358 6.765271 -7.040672
1305031450.270537 -0.754358 6.861063 -6.849089
1305031450.271574 -0.754358 6.861063 -6.849089
1305031450.274842 -1.005810 6.908959 -6.705402
1305031450.275811 -1.005810 6.908959 -6.705402
1305031450.279424 -1.053706 6.956854 -6.992776
1305031450.280462 -1.053706 6.956854 -6.992776
1305031450.281684 -1.053706 6.956854 -6.992776
1305031450.282831 -1.053706 6.956854 -6.992776
1305031450.285952 -0.850149 6.861063 -6.849089
1305031450.286964 -0.850149 6.861063 -6.849089
1305031450.290581 -0.850149 7.052646 -6.705402
1305031450.291575 -0.850149 7.052646 -6.705402
1305031450.294829 -0.850149 7.148437 -6.465923
1305031450.295854 -0.850149 7.148437 -6.465923
1305031450.299473 -1.053706 7.220281 -6.274340
1305031450.300438 -1.053706 7.220281 -6.274340
1305031450.301831 -1.053706 7.220281 -6.274340
1305031450.302840 -1.053706 7.220281 -6.274340
1305031450.305956 -0.850149 7.148437 -6.082757
1305031450.306924 -0.850149 7.148437 -6.082757
1305031450.310540 -1.053706 7.052646 -5.843279
1305031450.311615 -1.053706 7.052646 -5.843279
1305031450.314827 -0.957915 7.052646 -5.867226
1305031450.315867 -0.957915 7.052646 -5.867226
1305031450.317083 -0.957915 7.052646 -5.867226
1305031450.318501 -0.957915 7.052646 -5.867226
1305031450.321834 -1.053706 7.244229 -5.531956
1305031450.322792 -1.053706 7.244229 -5.531956
1305031450.325999 -1.053706 7.148437 -5.484061
1305031450.326956 -1.053706 7.148437 -5.484061
1305031450.330579 -0.850149 7.196333 -5.508009
1305031450.331582 -0.850149 7.196333 -5.508009
1305031450.334829 -0.706462 7.196333 -5.412217
1305031450.335804 -0.706462 7.196333 -5.412217
1305031450.337384 -0.706462 7.196333 -5.412217
1305031450.338457 -0.706462 7.196333 -5.412217
1305031450.341716 -0.622644 7.052646 -5.519982
1305031450.342833 -0.622644 7.052646 -5.519982
1305031450.345989 -0.658566 6.956854 -5.508009
1305031450.346966 -0.658566 6.956854 -5.508009
1305031450.350563 -0.478957 6.813167 -5.699591
1305031450.351548 -0.478957 6.813167 -5.699591
1305031450.354797 -0.275400 6.669480 -5.699591
1305031450.355800 -0.275400 6.669480 -5.699591
1305031450.359423 -0.191583 6.501845 -5.891174
1305031450.360549 -0.191583 6.501845 -5.891174
1305031450.361796 -0.191583 6.501845 -5.891174
1305031450.362796 -0.191583 6.501845 -5.891174
1305031450.365923 0.107765 6.286314 -6.274340
1305031450.366926 0.107765 6.286314 -6.274340
1305031450.370547 0.107765 6.286314 -6.178549
1305031450.371562 0.107765 6.286314 -6.178549
1305031450.374822 0.143687 6.190523 -6.370132
1305031450.375956 0.143687 6.190523 -6.370132
1305031450.379420 0.095791 6.382106 -6.465923
1305031450.380617 0.095791 6.382106 -6.465923
1305031450.381828 0.095791 6.382106 -6.465923
1305031450.382813 0.095791 6.382106 -6.465923
1305031450.385921 0.011974 6.477897 -6.465923
1305031450.386957 0.011974 6.477897 -6.465923
1305031450.390535 -0.083818 6.813167 -6.465923
1305031450.391577 -0.083818 6.813167 -6.465923
1305031450.394831 -0.083818 6.908959 -6.370132
1305031450.395817 -0.083818 6.908959 -6.370132
1305031450.399436 -0.083818 6.956854 -6.298288
1305031450.400442 -0.083818 6.956854 -6.298288
1305031450.401689 -0.083818 6.956854 -6.298288
1305031450.402692 -0.083818 6.956854 -6.298288
1305031450.405959 0.011974 7.052646 -6.370132
1305031450.406977 0.011974 7.052646 -6.370132
1305031450.410535 -0.239479 7.052646 -6.274340
1305031450.411572 -0.239479 7.052646 -6.274340
1305031450.414828 -0.239479 7.196333 -6.274340
1305031450.415813 -0.239479 7.196333 -6.274340
1305031450.419436 -0.263426 7.232255 -6.465923
1305031450.420549 -0.263426 7.232255 -6.465923
1305031450.421829 -0.263426 7.232255 -6.465923
1305031450.422835 -0.263426 7.232255 -6.465923
1305031450.425986 -0.191583 7.244229 -6.178549
1305031450.426970 -0.191583 7.244229 -6.178549
1305031450.430624 -0.191583 7.244229 -6.082757
1305031450.431619 -0.191583 7.244229 -6.082757
1305031450.434855 -0.191583 7.220281 -6.178549
1305031450.435816 -0.191583 7.220281 -6.178549
1305031450.439444 -0.275400 7.052646 -5.891174
1305031450.440473 -0.275400 7.052646 -5.891174
1305031450.441731 -0.275400 7.052646 -5.891174
1305031450.442740 -0.275400 7.052646 -5.891174
1305031450.445938 -0.371192 7.052646 -5.699591
1305031450.446927 -0.371192 7.052646 -5.699591
1305031450.450558 -0.275400 7.052646 -5.795383
1305031450.451549 -0.275400 7.052646 -5.795383
1305031450.454833 -0.275400 7.052646 -5.603800
1305031450.455811 -0.275400 7.052646 -5.603800
1305031450.459583 -0.371192 6.956854 -5.316426
1305031450.460588 -0.371192 6.956854 -5.316426
1305031450.461877 -0.371192 6.956854 -5.316426
1305031450.462843 -0.371192 6.956854 -5.316426
1305031450.465977 -0.239479 6.861063 -5.508009
1305031450.466966 -0.239479 6.861063 -5.508009
1305031450.470667 0.095791 6.525793 -5.891174
1305031450.471708 0.095791 6.525793 -5.891174
1305031450.474872 0.191583 6.477897 -5.699591
1305031450.475959 0.191583 6.477897 -5.699591
1305031450.479558 0.478957 6.286314 -6.082757
1305031450.480583 0.478957 6.286314 -6.082757
1305031450.481840 0.478957 6.286314 -6.082757
1305031450.482845 0.478957 6.286314 -6.082757
1305031450.485961 0.574749 6.094731 -6.274340
1305031450.486944 0.574749 6.094731 -6.274340
1305031450.490541 0.574749 5.903148 -6.370132
1305031450.491585 0.574749 5.903148 -6.370132
1305031450.494835 0.478957 6.094731 -6.370132
1305031450.495819 0.478957 6.094731 -6.370132
1305031450.499440 0.502905 5.903148 -6.657506
1305031450.500573 0.502905 5.903148 -6.657506
1305031450.501842 0.502905 5.903148 -6.657506
1305031450.502804 0.502905 5.903148 -6.657506
1305031450.505925 0.490931 6.094731 -6.849089
1305031450.506907 0.490931 6.094731 -6.849089
1305031450.510555 0.478957 6.286314 -6.849089
1305031450.511568 0.478957 6.286314 -6.849089
1305031450.514800 0.682514 6.286314 -6.992776
1305031450.515809 0.682514 6.286314 -6.992776
1305031450.519440 0.574749 6.453949 -6.849089
1305031450.520444 0.574749 6.453949 -6.849089
1305031450.521692 0.574749 6.453949 -6.849089
1305031450.522795 0.574749 6.453949 -6.849089
1305031450.525959 0.478957 6.501845 -6.753297
1305031450.526965 0.478957 6.501845 -6.753297
1305031450.530571 0.574749 6.573688 -6.753297
1305031450.531568 0.574749 6.573688 -6.753297
1305031450.534816 0.478957 6.573688 -6.657506
1305031450.535820 0.478957 6.573688 -6.657506
1305031450.539474 0.287374 6.525793 -6.657506
1305031450.540505 0.287374 6.525793 -6.657506
1305031450.541692 0.287374 6.525793 -6.657506
1305031450.542836 0.287374 6.525793 -6.657506
1305031450.545942 0.287374 6.765271 -6.465923
1305031450.547116 0.287374 6.765271 -6.465923
1305031450.550676 0.107765 6.873037 -6.274340
1305031450.551708 0.107765 6.873037 -6.274340
1305031450.554818 0.095791 7.052646 -6.082757
1305031450.555807 0.095791 7.052646 -6.082757
1305031450.559595 0.095791 7.220281 -5.891174
1305031450.560565 0.095791 7.220281 -5.891174
1305031450.561834 0.095791 7.220281 -5.891174
1305031450.562838 0.095791 7.220281 -5.891174
1305031450.565972 0.095791 7.052646 -6.178549
1305031450.567143 0.095791 7.052646 -6.178549
1305031450.570609 0.143687 6.873037 -6.082757
1305031450.571584 0.143687 6.873037 -6.082757
1305031450.574794 0.107765 6.956854 -5.986966
1305031450.575859 0.107765 6.956854 -5.986966
1305031450.579446 0.095791 7.052646 -6.082757
1305031450.580437 0.095791 7.052646 -6.082757
1305031450.581846 0.095791 7.052646 -6.082757
1305031450.582873 0.095791 7.052646 -6.082757
1305031450.585969 0.011974 7.220281 -6.370132
1305031450.586949 0.011974 7.220281 -6.370132
1305031450.590558 0.107765 7.148437 -6.657506
1305031450.591615 0.107765 7.148437 -6.657506
1305031450.594839 0.095791 7.244229 -6.465923
1305031450.595788 0.095791 7.244229 -6.465923
1305031450.599450 0.143687 7.244229 -6.465923
1305031450.600432 0.143687 7.244229 -6.465923
1305031450.601864 0.143687 7.244229 -6.465923
1305031450.602840 0.143687 7.244229 -6.465923
1305031450.605942 0.119739 7.244229 -6.322236
1305031450.606948 0.119739 7.244229 -6.322236
1305031450.610556 0.395140 7.244229 -6.561715
1305031450.611570 0.395140 7.244229 -6.561715
1305031450.614824 0.466983 7.220281 -6.286314
1305031450.615990 0.466983 7.220281 -6.286314
1305031450.619474 0.443035 7.148437 -6.274340
1305031450.620448 0.443035 7.148437 -6.274340
1305031450.621834 0.443035 7.148437 -6.274340
1305031450.622876 0.443035 7.148437 -6.274340
1305031450.625975 0.478957 6.908959 -6.370132
1305031450.626947 0.478957 6.908959 -6.370132
1305031450.630680 0.502905 6.956854 -6.322236
1305031450.631571 0.502905 6.956854 -6.322236
1305031450.634838 0.778306 6.885011 -6.274340
1305031450.635822 0.778306 6.885011 -6.274340
1305031450.639476 0.574749 6.956854 -6.082757
1305031450.640557 0.574749 6.956854 -6.082757
1305031450.641836 0.574749 6.956854 -6.082757
1305031450.642848 0.574749 6.956854 -6.082757
1305031450.645964 0.826201 6.861063 -6.274340
1305031450.646978 0.826201 6.861063 -6.274340
1305031450.650555 0.826201 6.861063 -5.986966
1305031450.651571 0.826201 6.861063 -5.986966
1305031450.654827 0.862123 6.813167 -6.226444
1305031450.655826 0.862123 6.813167 -6.226444
1305031450.659451 0.850149 6.908959 -5.891174
1305031450.660593 0.850149 6.908959 -5.891174
1305031450.661841 0.850149 6.908959 -5.891174
1305031450.662840 0.850149 6.908959 -5.891174
1305031450.665994 0.862123 6.956854 -5.915122
1305031450.666965 0.862123 6.956854 -5.915122
1305031450.670562 0.682514 7.196333 -5.891174
1305031450.671609 0.682514 7.196333 -5.891174
1305031450.674683 0.778306 7.232255 -5.891174
1305031450.675682 0.778306 7.232255 -5.891174
1305031450.676939 0.778306 7.232255 -5.891174
1305031450.678075 0.778306 7.232255 -5.891174
1305031450.681613 0.682514 7.244229 -5.795383
1305031450.682756 0.682514 7.244229 -5.795383
1305031450.685971 0.682514 7.244229 -5.843279
1305031450.686939 0.682514 7.244229 -5.843279
1305031450.690544 0.778306 7.244229 -6.082757
1305031450.691589 0.778306 7.244229 -6.082757
1305031450.694967 0.526853 7.435812 -5.699591
1305031450.695919 0.526853 7.435812 -5.699591
1305031450.699458 0.778306 7.435812 -6.082757
1305031450.700574 0.778306 7.435812 -6.082757
1305031450.701840 0.778306 7.435812 -6.082757
1305031450.702840 0.778306 7.435812 -6.082757
1305031450.705966 0.850149 7.435812 -6.274340
1305031450.706952 0.850149 7.435812 -6.274340
1305031450.710585 0.850149 7.244229 -6.274340
1305031450.711611 0.850149 7.244229 -6.274340
1305031450.714822 0.778306 7.256203 -6.465923
1305031450.715966 0.778306 7.256203 -6.465923
1305031450.719463 0.682514 7.244229 -6.370132
1305031450.720574 0.682514 7.244229 -6.370132
1305031450.721869 0.682514 7.244229 -6.370132
1305031450.722842 0.682514 7.244229 -6.370132
1305031450.725994 0.862123 7.148437 -6.465923
1305031450.726987 0.862123 7.148437 -6.465923
1305031450.730572 0.910019 6.956854 -6.609610
1305031450.731622 0.910019 6.956854 -6.609610
1305031450.734880 0.957915 6.861063 -6.465923
1305031450.735828 0.957915 6.861063 -6.465923
1305031450.739440 0.910019 6.861063 -6.082757
1305031450.740596 0.910019 6.861063 -6.082757
1305031450.741840 0.910019 6.861063 -6.082757
1305031450.742844 0.910019 6.861063 -6.082757
1305031450.745962 1.161471 6.765271 -6.082757
1305031450.746953 1.161471 6.765271 -6.082757
1305031450.750634 1.161471 6.837115 -6.178549
1305031450.751588 1.161471 6.837115 -6.178549
1305031450.754879 1.245289 6.861063 -5.891174
1305031450.755846 1.245289 6.861063 -5.891174
1305031450.757093 1.245289 6.861063 -5.891174
1305031450.758464 1.245289 6.861063 -5.891174
1305031450.761702 1.257263 6.861063 -6.082757
1305031450.762843 1.257263 6.861063 -6.082757
1305031450.765970 1.161471 7.052646 -6.262366
1305031450.766965 1.161471 7.052646 -6.262366
1305031450.770582 1.257263 7.052646 -6.370132
1305031450.771602 1.257263 7.052646 -6.370132
1305031450.774851 1.257263 7.244229 -6.465923
1305031450.775844 1.257263 7.244229 -6.465923
1305031450.779461 1.257263 7.256203 -6.561715
1305031450.780484 1.257263 7.256203 -6.561715
1305031450.781709 1.257263 7.256203 -6.561715
1305031450.782738 1.257263 7.256203 -6.561715
1305031450.786096 1.053706 7.627394 -6.298288
1305031450.787054 1.053706 7.627394 -6.298288
1305031450.790716 1.053706 7.627394 -6.370132
1305031450.791714 1.053706 7.627394 -6.370132
1305031450.794880 0.862123 7.818977 -6.465923
1305031450.795824 0.862123 7.818977 -6.465923
1305031450.799453 0.862123 7.723186 -6.465923
1305031450.800507 0.862123 7.723186 -6.465923
1305031450.801702 0.862123 7.723186 -6.465923
1305031450.802703 0.862123 7.723186 -6.465923
1305031450.805970 0.862123 7.723186 -6.657506
1305031450.806936 0.862123 7.723186 -6.657506
1305031450.810550 0.862123 7.435812 -6.753297
1305031450.811617 0.862123 7.435812 -6.753297
1305031450.814846 0.957915 7.340020 -6.944880
1305031450.815831 0.957915 7.340020 -6.944880
1305031450.819453 0.957915 7.340020 -6.944880
1305031450.820455 0.957915 7.340020 -6.944880
1305031450.821701 0.957915 7.340020 -6.944880
1305031450.822852 0.957915 7.340020 -6.944880
1305031450.825997 0.874097 7.244229 -6.944880
1305031450.826970 0.874097 7.244229 -6.944880
1305031450.830602 0.862123 7.244229 -7.040672
1305031450.831636 0.862123 7.244229 -7.040672
1305031450.834872 0.862123 7.052646 -6.849089
1305031450.835849 0.862123 7.052646 -6.849089
1305031450.839484 0.682514 7.244229 -6.705402
1305031450.840492 0.682514 7.244229 -6.705402
1305031450.841700 0.682514 7.244229 -6.705402
1305031450.842846 0.682514 7.244229 -6.705402
1305031450.845995 0.682514 7.244229 -7.040672
1305031450.846957 0.682514 7.244229 -7.040672
1305031450.850596 0.574749 7.244229 -7.232255
1305031450.851605 0.574749 7.244229 -7.232255
1305031450.854882 0.502905 7.244229 -7.328046
1305031450.855827 0.502905 7.244229 -7.328046
1305031450.859470 0.490931 7.244229 -7.423838
1305031450.860633 0.490931 7.244229 -7.423838
1305031450.861846 0.490931 7.244229 -7.423838
1305031450.862887 0.490931 7.244229 -7.423838
1305031450.865973 0.526853 7.435812 -7.807003
1305031450.866974 0.526853 7.435812 -7.807003
1305031450.870636 0.191583 7.531603 -7.854899
1305031450.871579 0.191583 7.531603 -7.854899
1305031450.874846 0.191583 7.723186 -7.807003
1305031450.875859 0.191583 7.723186 -7.807003
1305031450.879454 0.191583 7.962665 -7.807003
1305031450.880566 0.191583 7.962665 -7.807003
1305031450.881845 0.191583 7.962665 -7.807003
1305031450.882891 0.191583 7.962665 -7.807003
1305031450.885993 0.191583 8.010560 -7.902795
1305031450.886983 0.191583 8.010560 -7.902795
1305031450.890623 0.107765 8.058456 -7.711212
1305031450.891595 0.107765 8.058456 -7.711212
1305031450.894830 0.107765 8.106352 -7.232255
1305031450.895969 0.107765 8.106352 -7.232255
1305031450.899596 0.191583 8.106352 -7.016724
1305031450.900596 0.191583 8.106352 -7.016724
1305031450.901847 0.191583 8.106352 -7.016724
1305031450.902848 0.191583 8.106352 -7.016724
1305031450.905974 0.287374 8.010560 -6.657506
1305031450.906974 0.287374 8.010560 -6.657506
1305031450.910570 0.526853 7.627394 -6.322236
1305031450.911633 0.526853 7.627394 -6.322236
1305031450.914850 0.574749 7.435812 -6.178549
1305031450.915830 0.574749 7.435812 -6.178549
1305031450.917348 0.574749 7.435812 -6.178549
1305031450.918476 0.574749 7.435812 -6.178549
1305031450.921701 0.862123 7.148437 -6.178549
1305031450.922847 0.862123 7.148437 -6.178549
1305031450.926005 0.862123 7.052646 -5.903148
1305031450.927003 0.862123 7.052646 -5.903148
1305031450.930601 0.910019 6.885011 -6.178549
1305031450.931769 0.910019 6.885011 -6.178549
1305031450.934851 0.957915 6.765271 -5.891174
1305031450.935830 0.957915 6.765271 -5.891174
1305031450.939455 1.161471 6.861063 -5.939070
1305031450.940639 1.161471 6.861063 -5.939070
1305031450.941887 1.161471 6.861063 -5.939070
1305031450.942852 1.161471 6.861063 -5.939070
1305031450.945971 1.161471 6.908959 -6.082757
1305031450.946983 1.161471 6.908959 -6.082757
1305031450.950641 1.257263 6.908959 -6.274340
1305031450.951579 1.257263 6.908959 -6.274340
1305031450.954864 1.053706 7.244229 -6.274340
1305031450.955967 1.053706 7.244229 -6.274340
1305031450.959463 1.053706 7.220281 -6.322236
1305031450.960606 1.053706 7.220281 -6.322236
1305031450.961849 1.053706 7.220281 -6.322236
1305031450.962889 1.053706 7.220281 -6.322236
1305031450.966003 0.957915 7.435812 -6.465923
1305031450.966973 0.957915 7.435812 -6.465923
1305031450.970607 0.862123 7.818977 -6.561715
1305031450.971627 0.862123 7.818977 -6.561715
1305031450.974887 1.053706 7.818977 -6.609610
1305031450.975829 1.053706 7.818977 -6.609610
1305031450.979442 1.053706 7.723186 -6.322236
1305031450.980450 1.053706 7.723186 -6.322236
1305031450.981708 1.053706 7.723186 -6.322236
1305031450.982883 1.053706 7.723186 -6.322236
1305031450.986011 1.053706 7.818977 -5.915122
1305031450.986959 1.053706 7.818977 -5.915122
1305031450.990600 1.257263 7.818977 -5.986966
1305031450.991625 1.257263 7.818977 -5.986966
1305031450.994869 1.448846 7.627394 -5.603800
1305031450.995970 1.448846 7.627394 -5.603800
1305031450.999461 1.544637 7.579499 -5.508009
1305031451.000610 1.544637 7.579499 -5.508009
1305031451.001710 1.544637 7.579499 -5.508009
1305031451.002850 1.544637 7.579499 -5.508009
1305031451.005972 1.640429 7.256203 -5.316426
1305031451.006976 1.640429 7.256203 -5.316426
1305031451.010557 1.724246 7.244229 -5.316426
1305031451.011637 1.724246 7.244229 -5.316426
1305031451.014849 1.640429 7.220281 -5.124843
1305031451.015849 1.640429 7.220281 -5.124843
1305031451.019457 1.640429 7.244229 -5.029051
1305031451.020461 1.640429 7.244229 -5.029051
1305031451.021714 1.640429 7.244229 -5.029051
1305031451.022851 1.640429 7.244229 -5.029051
1305031451.026013 1.640429 7.340020 -5.124843
1305031451.027004 1.640429 7.340020 -5.124843
1305031451.030625 1.616481 7.268176 -5.220634
1305031451.031598 1.616481 7.268176 -5.220634
1305031451.034832 1.448846 7.292124 -5.220634
1305031451.035857 1.448846 7.292124 -5.220634
1305031451.039441 1.448846 7.244229 -5.316426
1305031451.040462 1.448846 7.244229 -5.316426
1305031451.041736 1.448846 7.244229 -5.316426
1305031451.042851 1.448846 7.244229 -5.316426
1305031451.045973 1.341080 7.244229 -5.508009
1305031451.046989 1.341080 7.244229 -5.508009
1305031451.050581 1.544637 7.244229 -5.699591
1305031451.051594 1.544637 7.244229 -5.699591
1305031451.054825 1.448846 7.340020 -5.603800
1305031451.055833 1.448846 7.340020 -5.603800
1305031451.059455 1.293185 7.627394 -5.508009
1305031451.060603 1.293185 7.627394 -5.508009
1305031451.061873 1.293185 7.627394 -5.508009
1305031451.062884 1.293185 7.627394 -5.508009
1305031451.065973 1.257263 7.914769 -5.316426
1305031451.066959 1.257263 7.914769 -5.316426
1305031451.070622 1.293185 7.962665 -4.933260
1305031451.071722 1.293185 7.962665 -4.933260
1305031451.074848 1.544637 8.010560 -5.100895
1305031451.076011 1.544637 8.010560 -5.100895
1305031451.079453 1.676350 7.723186 -5.112869
1305031451.080585 1.676350 7.723186 -5.112869
1305031451.081896 1.676350 7.723186 -5.112869
1305031451.082853 1.676350 7.723186 -5.112869
1305031451.086004 1.927803 7.531603 -5.220634
1305031451.086985 1.927803 7.531603 -5.220634
1305031451.090600 2.011621 7.292124 -5.316426
1305031451.091610 2.011621 7.292124 -5.316426
1305031451.095010 2.215177 7.220281 -5.795383
1305031451.095979 2.215177 7.220281 -5.795383
1305031451.099628 2.406760 7.052646 -5.915122
1305031451.100638 2.406760 7.052646 -5.915122
1305031451.101850 2.406760 7.052646 -5.915122
1305031451.102853 2.406760 7.052646 -5.915122
1305031451.105959 2.406760 7.052646 -6.274340
1305031451.106972 2.406760 7.052646 -6.274340
1305031451.110729 2.586369 6.956854 -6.657506
1305031451.111724 2.586369 6.956854 -6.657506
1305031451.114831 2.777952 6.861063 -6.849089
1305031451.115871 2.777952 6.861063 -6.849089
1305031451.119488 2.694135 6.861063 -7.040672
1305031451.120555 2.694135 6.861063 -7.040672
1305031451.121846 2.694135 6.861063 -7.040672
1305031451.122850 2.694135 6.861063 -7.040672
1305031451.126008 2.490578 6.765271 -7.232255
1305031451.127005 2.490578 6.765271 -7.232255
1305031451.130628 2.406760 6.837115 -7.423838
1305031451.131604 2.406760 6.837115 -7.423838
1305031451.134833 2.442682 6.669480 -7.471733
1305031451.135976 2.442682 6.669480 -7.471733
1305031451.139487 2.406760 6.669480 -7.423838
1305031451.140473 2.406760 6.669480 -7.423838
1305031451.141706 2.406760 6.669480 -7.423838
1305031451.142880 2.406760 6.669480 -7.423838
1305031451.145955 2.215177 6.861063 -7.052646
1305031451.147127 2.215177 6.861063 -7.052646
1305031451.150618 2.310969 6.861063 -6.849089
1305031451.151582 2.310969 6.861063 -6.849089
1305031451.155008 2.358865 7.052646 -6.561715
1305031451.155987 2.358865 7.052646 -6.561715
1305031451.159596 2.215177 7.196333 -5.915122
1305031451.160598 2.215177 7.196333 -5.915122
1305031451.161859 2.215177 7.196333 -5.915122
1305031451.162976 2.215177 7.196333 -5.915122
1305031451.165958 2.358865 7.244229 -5.508009
1305031451.166958 2.358865 7.244229 -5.508009
1305031451.170728 2.358865 7.244229 -5.220634
1305031451.171722 2.358865 7.244229 -5.220634
1305031451.174830 2.394786 7.244229 -5.220634
1305031451.175835 2.394786 7.244229 -5.220634
1305031451.179458 2.406760 7.435812 -5.124843
1305031451.180460 2.406760 7.435812 -5.124843
1305031451.181814 2.406760 7.435812 -5.124843
1305031451.182861 2.406760 7.435812 -5.124843
1305031451.185956 2.490578 7.340020 -5.603800
1305031451.187127 2.490578 7.340020 -5.603800
1305031451.190727 2.490578 7.292124 -5.891174
1305031451.191752 2.490578 7.292124 -5.891174
1305031451.194866 2.394786 7.244229 -5.903148
1305031451.195898 2.394786 7.244229 -5.903148
1305031451.199459 2.442682 7.244229 -6.322236
1305031451.200458 2.442682 7.244229 -6.322236
1305031451.201848 2.442682 7.244229 -6.322236
1305031451.202853 2.442682 7.244229 -6.322236
1305031451.206100 2.406760 7.244229 -6.944880
1305031451.207107 2.406760 7.244229 -6.944880
1305031451.210564 2.406760 7.244229 -7.232255
1305031451.211770 2.406760 7.244229 -7.232255
1305031451.214891 2.586369 7.196333 -7.471733
1305031451.215837 2.586369 7.196333 -7.471733
1305031451.219599 2.442682 6.861063 -7.818977
1305031451.220601 2.442682 6.861063 -7.818977
1305031451.221829 2.442682 6.861063 -7.818977
1305031451.222836 2.442682 6.861063 -7.818977
1305031451.225971 2.406760 6.885011 -7.998586
1305031451.227002 2.406760 6.885011 -7.998586
1305031451.230637 2.406760 6.908959 -8.094378
1305031451.231596 2.406760 6.908959 -8.094378
1305031451.234830 2.490578 7.052646 -7.902795
1305031451.235830 2.490578 7.052646 -7.902795
1305031451.239474 2.490578 7.148437 -7.902795
1305031451.240571 2.490578 7.148437 -7.902795
1305031451.241860 2.490578 7.148437 -7.902795
1305031451.242853 2.490578 7.148437 -7.902795
1305031451.245984 2.586369 6.861063 -7.854899
1305031451.246998 2.586369 6.861063 -7.854899
1305031451.250601 2.406760 6.861063 -7.615421
1305031451.251580 2.406760 6.861063 -7.615421
1305031451.254851 2.490578 6.573688 -7.423838
1305031451.255835 2.490578 6.573688 -7.423838
1305031451.259458 2.310969 6.477897 -7.232255
1305031451.260613 2.310969 6.477897 -7.232255
1305031451.261708 2.310969 6.477897 -7.232255
1305031451.262849 2.310969 6.477897 -7.232255
1305031451.265973 2.215177 6.286314 -7.328046
1305031451.266963 2.215177 6.286314 -7.328046
1305031451.270623 2.215177 6.286314 -7.136463
1305031451.271582 2.215177 6.286314 -7.136463
1305031451.274815 2.215177 6.190523 -7.328046
1305031451.275944 2.215177 6.190523 -7.328046
1305031451.279566 2.107412 6.477897 -7.232255
1305031451.280557 2.107412 6.477897 -7.232255
1305031451.281949 2.107412 6.477897 -7.232255
1305031451.282859 2.107412 6.477897 -7.232255
1305031451.285998 2.011621 7.052646 -7.423838
1305031451.286945 2.011621 7.052646 -7.423838
1305031451.290729 1.820038 7.244229 -7.447785
1305031451.291582 1.820038 7.244229 -7.447785
1305031451.295011 1.724246 7.579499 -7.423838
1305031451.295972 1.724246 7.579499 -7.423838
1305031451.299476 1.628455 7.818977 -7.471733
1305031451.300622 1.628455 7.818977 -7.471733
1305031451.301848 1.628455 7.818977 -7.471733
1305031451.302849 1.628455 7.818977 -7.471733
1305031451.305974 1.448846 8.010560 -7.615421
1305031451.306980 1.448846 8.010560 -7.615421
1305031451.310597 1.257263 8.106352 -7.615421
1305031451.311597 1.257263 8.106352 -7.615421
1305031451.314847 1.257263 8.034508 -7.902795
1305031451.315808 1.257263 8.034508 -7.902795
1305031451.319466 1.341080 8.010560 -8.381752
1305031451.320593 1.341080 8.010560 -8.381752
1305031451.321848 1.341080 8.010560 -8.381752
1305031451.322852 1.341080 8.010560 -8.381752
1305031451.326004 1.341080 7.818977 -8.525439
1305031451.326991 1.341080 7.818977 -8.525439
1305031451.330586 1.293185 7.651342 -8.573335
1305031451.331581 1.293185 7.651342 -8.573335
1305031451.334832 1.628455 7.435812 -8.381752
1305031451.335834 1.628455 7.435812 -8.381752
1305031451.339455 1.640429 7.268176 -8.190169
1305031451.340462 1.640429 7.268176 -8.190169
1305031451.341709 1.640429 7.268176 -8.190169
1305031451.342711 1.640429 7.268176 -8.190169
1305031451.346011 1.820038 7.148437 -7.807003
1305031451.346992 1.820038 7.148437 -7.807003
1305031451.350440 1.927803 6.956854 -7.615421
1305031451.351595 1.927803 6.956854 -7.615421
1305031451.354856 2.011621 6.861063 -7.795029
1305031451.355706 2.011621 6.861063 -7.795029
1305031451.356949 2.011621 6.861063 -7.795029
1305031451.358349 2.011621 6.861063 -7.795029
1305031451.361721 2.107412 6.861063 -7.711212
1305031451.362708 2.107412 6.861063 -7.711212
1305031451.366053 2.215177 6.669480 -7.615421
1305031451.367000 2.215177 6.669480 -7.615421
1305031451.370558 1.820038 6.573688 -7.854899
1305031451.371605 1.820038 6.573688 -7.854899
1305031451.374832 1.820038 6.453949 -7.902795
1305031451.376003 1.820038 6.453949 -7.902795
1305031451.379455 1.616481 6.190523 -7.902795
1305031451.380599 1.616481 6.190523 -7.902795
1305031451.381846 1.616481 6.190523 -7.902795
1305031451.382859 1.616481 6.190523 -7.902795
1305031451.385972 1.448846 6.094731 -8.142274
1305031451.386957 1.448846 6.094731 -8.142274
1305031451.390555 1.293185 5.998940 -8.285961
1305031451.391583 1.293185 5.998940 -8.285961
1305031451.394845 1.257263 6.094731 -8.381752
1305031451.395849 1.257263 6.094731 -8.381752
1305031451.397394 1.257263 6.094731 -8.381752
1305031451.398477 1.257263 6.094731 -8.381752
1305031451.401844 1.269237 6.477897 -8.381752
1305031451.402860 1.269237 6.477897 -8.381752
1305031451.406380 1.053706 7.627394 -8.190169
1305031451.409719 0.957915 8.393726 -7.998586
1305031451.410704 0.957915 8.393726 -7.998586
1305031451.412012 0.957915 8.393726 -7.998586
1305031451.412985 0.957915 8.393726 -7.998586
1305031451.416631 0.574749 8.202143 -8.381752
1305031451.417736 0.574749 8.202143 -8.381752
1305031451.420814 0.395140 8.010560 -8.190169
1305031451.422000 0.395140 8.010560 -8.190169
1305031451.425627 0.191583 8.010560 -8.238065
1305031451.426600 0.191583 8.010560 -8.238065
1305031451.429853 0.095791 8.393726 -8.190169
1305031451.430876 0.095791 8.393726 -8.190169
1305031451.434597 0.011974 9.148084 -7.998586
1305031451.435594 0.011974 9.148084 -7.998586
1305031451.436865 0.011974 9.148084 -7.998586
1305031451.437862 0.011974 9.148084 -7.998586
1305031451.441018 -0.083818 9.543224 -7.902795
1305031451.441987 -0.083818 9.543224 -7.902795
1305031451.445599 -0.263426 9.734806 -8.094378
1305031451.446637 -0.263426 9.734806 -8.094378
1305031451.449855 -0.275400 9.830598 -7.615421
1305031451.450864 -0.275400 9.830598 -7.615421
1305031451.452353 -0.275400 9.830598 -7.615421
1305031451.455727 0.095791 9.543224 -7.998586
1305031451.456714 0.095791 9.543224 -7.998586
1305031451.459817 0.107765 9.255849 -7.998586
1305031451.460862 0.107765 9.255849 -7.998586
1305031451.464494 0.443035 8.968475 -8.381752
1305031451.465633 0.443035 8.968475 -8.381752
1305031451.466879 0.443035 8.968475 -8.381752
1305031451.467849 0.443035 8.968475 -8.381752
1305031451.470969 0.862123 8.585309 -8.573335
1305031451.471975 0.862123 8.585309 -8.573335
1305031451.475604 1.053706 8.297935 -8.764918
1305031451.476586 1.053706 8.297935 -8.764918
1305031451.479831 1.293185 7.675290 -9.148084
1305031451.480983 1.293185 7.675290 -9.148084
1305031451.484632 1.544637 7.435812 -9.531250
1305031451.485579 1.544637 7.435812 -9.531250
1305031451.486850 1.544637 7.435812 -9.531250
1305031451.487816 1.544637 7.435812 -9.531250
1305031451.490987 1.257263 7.340020 -9.531250
1305031451.491999 1.257263 7.340020 -9.531250
1305031451.495595 1.257263 7.256203 -9.435458
1305031451.496604 1.257263 7.256203 -9.435458
1305031451.499862 1.053706 7.292124 -9.698885
1305031451.500827 1.053706 7.292124 -9.698885
1305031451.504472 1.053706 7.244229 -9.531250
1305031451.505434 1.053706 7.244229 -9.531250
1305031451.506728 1.053706 7.244229 -9.531250
1305031451.507734 1.053706 7.244229 -9.531250
1305031451.510964 0.682514 7.579499 -8.956501
1305031451.512143 0.682514 7.579499 -8.956501
1305031451.515736 0.478957 8.058456 -8.477544
1305031451.516851 0.478957 8.058456 -8.477544
1305031451.519850 0.478957 8.441622 -8.238065
1305031451.520893 0.478957 8.441622 -8.238065
1305031451.524598 0.191583 8.968475 -7.998586
1305031451.525596 0.191583 8.968475 -7.998586
1305031451.526893 0.191583 8.968475 -7.998586
1305031451.527850 0.191583 8.968475 -7.998586
1305031451.531019 0.191583 9.064266 -7.759108
1305031451.531973 0.191583 9.064266 -7.759108
1305031451.535583 0.095791 9.160058 -7.423838
1305031451.536611 0.095791 9.160058 -7.423838
1305031451.539862 0.059870 9.160058 -7.136463
1305031451.540863 0.059870 9.160058 -7.136463
1305031451.544456 -0.083818 9.351641 -6.681454
1305031451.545602 -0.083818 9.351641 -6.681454
1305031451.546854 -0.083818 9.351641 -6.681454
1305031451.547847 -0.083818 9.351641 -6.681454
1305031451.551008 -0.083818 9.255849 -6.322236
1305031451.551968 -0.083818 9.255849 -6.322236
1305031451.555599 0.011974 9.160058 -6.178549
1305031451.556614 0.011974 9.160058 -6.178549
1305031451.559828 0.107765 9.184006 -5.891174
1305031451.560886 0.107765 9.184006 -5.891174
1305031451.564504 0.287374 9.447432 -5.555904
1305031451.565475 0.287374 9.447432 -5.555904
1305031451.566710 0.287374 9.447432 -5.555904
1305031451.567847 0.287374 9.447432 -5.555904
1305031451.571168 0.478957 9.938363 -5.124843
1305031451.572387 0.478957 9.938363 -5.124843
1305031451.575768 0.682514 10.309555 -5.484061
1305031451.576729 0.682514 10.309555 -5.484061
1305031451.579832 1.053706 10.117972 -5.699591
1305031451.580840 1.053706 10.117972 -5.699591
1305031451.584487 1.257263 9.974285 -6.082757
1305031451.585583 1.257263 9.974285 -6.082757
1305031451.586849 1.257263 9.974285 -6.082757
1305031451.587829 1.257263 9.974285 -6.082757
1305031451.590994 1.161471 9.351641 -6.465923
1305031451.592135 1.161471 9.351641 -6.465923
1305031451.595741 1.341080 8.728996 -6.849089
1305031451.596726 1.341080 8.728996 -6.849089
1305031451.599851 1.448846 8.058456 -7.232255
1305031451.600978 1.448846 8.058456 -7.232255
1305031451.604635 1.448846 7.998586 -7.136463
1305031451.605584 1.448846 7.998586 -7.136463
1305031451.606849 1.448846 7.998586 -7.136463
1305031451.607830 1.448846 7.998586 -7.136463
1305031451.610976 1.544637 7.914769 -7.040672
1305031451.612015 1.544637 7.914769 -7.040672
1305031451.615565 1.724246 7.627394 -7.232255
1305031451.616601 1.724246 7.627394 -7.232255
1305031451.619852 1.820038 7.148437 -7.423838
1305031451.620853 1.820038 7.148437 -7.423838
1305031451.624582 1.820038 6.453949 -7.759108
1305031451.625763 1.820038 6.453949 -7.759108
1305031451.626976 1.820038 6.453949 -7.759108
1305031451.627982 1.820038 6.453949 -7.759108
1305031451.631598 2.215177 6.094731 -7.998586
1305031451.632585 2.215177 6.094731 -7.998586
1305031451.635815 2.406760 6.094731 -8.190169
1305031451.637010 2.406760 6.094731 -8.190169
1305031451.640658 2.406760 6.286314 -8.238065
1305031451.641585 2.406760 6.286314 -8.238065
1305031451.644830 2.394786 6.453949 -8.142274
1305031451.645830 2.394786 6.453949 -8.142274
1305031451.649448 2.382812 6.453949 -8.142274
1305031451.650538 2.382812 6.453949 -8.142274
1305031451.651725 2.382812 6.453949 -8.142274
1305031451.652729 2.382812 6.453949 -8.142274
1305031451.655984 2.358865 6.286314 -7.807003
1305031451.656975 2.358865 6.286314 -7.807003
1305031451.660680 2.215177 7.052646 -7.399890
1305031451.661740 2.215177 7.052646 -7.399890
1305031451.665006 2.215177 7.723186 -7.040672
1305031451.665989 2.215177 7.723186 -7.040672
1305031451.669616 2.310969 7.998586 -7.040672
1305031451.670583 2.310969 7.998586 -7.040672
1305031451.671858 2.310969 7.998586 -7.040672
1305031451.672852 2.310969 7.998586 -7.040672
1305031451.676001 2.215177 8.393726 -6.561715
1305031451.676977 2.215177 8.393726 -6.561715
1305031451.680579 2.059516 8.393726 -6.370132
1305031451.681722 2.059516 8.393726 -6.370132
1305031451.684863 2.215177 8.585309 -6.274340
1305031451.685829 2.215177 8.585309 -6.274340
1305031451.689444 2.107412 8.393726 -6.082757
1305031451.690499 2.107412 8.393726 -6.082757
1305031451.691764 2.107412 8.393726 -6.082757
1305031451.692744 2.107412 8.393726 -6.082757
1305031451.695974 2.215177 8.369778 -6.226444
1305031451.696958 2.215177 8.369778 -6.226444
1305031451.700644 2.358865 8.058456 -6.274340
1305031451.701610 2.358865 8.058456 -6.274340
1305031451.704835 2.310969 7.986612 -6.370132
1305031451.705859 2.310969 7.986612 -6.370132
1305031451.709462 2.406760 7.818977 -6.633558
1305031451.710575 2.406760 7.818977 -6.633558
1305031451.711901 2.406760 7.818977 -6.633558
1305031451.712854 2.406760 7.818977 -6.633558
1305031451.715975 2.442682 8.010560 -6.561715
1305031451.716976 2.442682 8.010560 -6.561715
1305031451.720631 2.742030 8.010560 -6.657506
1305031451.721580 2.742030 8.010560 -6.657506
1305031451.724817 2.789926 8.345830 -6.465923
1305031451.726007 2.789926 8.345830 -6.465923
1305031451.729460 2.789926 8.393726 -6.609610
1305031451.730486 2.789926 8.393726 -6.609610
1305031451.731727 2.789926 8.393726 -6.609610
1305031451.732709 2.789926 8.393726 -6.609610
1305031451.736002 2.825848 7.914769 -6.681454
1305031451.736960 2.825848 7.914769 -6.681454
1305031451.740592 2.825848 7.579499 -6.849089
1305031451.741620 2.825848 7.579499 -6.849089
1305031451.744854 2.789926 7.340020 -6.849089
1305031451.745973 2.789926 7.340020 -6.849089
1305031451.749461 2.789926 7.340020 -6.753297
1305031451.750526 2.789926 7.340020 -6.753297
1305031451.751721 2.789926 7.340020 -6.753297
1305031451.752725 2.789926 7.340020 -6.753297
1305031451.755950 2.981509 7.340020 -6.849089
1305031451.756976 2.981509 7.340020 -6.849089
1305031451.760564 2.981509 7.531603 -6.705402
1305031451.761579 2.981509 7.531603 -6.705402
1305031451.764849 2.789926 7.435812 -6.645532
1305031451.765834 2.789926 7.435812 -6.645532
1305031451.769473 2.742030 7.268176 -6.286314
1305031451.770646 2.742030 7.268176 -6.286314
1305031451.771706 2.742030 7.268176 -6.286314
1305031451.772852 2.742030 7.268176 -6.286314
1305031451.775976 2.801900 7.052646 -6.465923
1305031451.776976 2.801900 7.052646 -6.465923
1305031451.780590 2.789926 7.052646 -6.274340
1305031451.781730 2.789926 7.052646 -6.274340
1305031451.784835 3.125196 6.908959 -6.657506
1305031451.785971 3.125196 6.908959 -6.657506
1305031451.789608 3.173092 6.861063 -6.681454
1305031451.790629 3.173092 6.861063 -6.681454
1305031451.791847 3.173092 6.861063 -6.681454
1305031451.792860 3.173092 6.861063 -6.681454
1305031451.795949 3.173092 7.148437 -6.633558
1305031451.796978 3.173092 7.148437 -6.633558
1305031451.800575 3.173092 7.052646 -6.681454
1305031451.801583 3.173092 7.052646 -6.681454
1305031451.804855 3.209014 7.220281 -6.753297
1305031451.805831 3.209014 7.220281 -6.753297
1305031451.809444 3.256909 7.244229 -6.849089
1305031451.810490 3.256909 7.244229 -6.849089
1305031451.811760 3.256909 7.244229 -6.849089
1305031451.812708 3.256909 7.244229 -6.849089
1305031451.815826 3.256909 7.232255 -6.753297
1305031451.816978 3.256909 7.232255 -6.753297
1305031451.820585 3.256909 7.148437 -6.849089
1305031451.821599 3.256909 7.148437 -6.849089
1305031451.824850 3.185066 7.244229 -6.561715
1305031451.825845 3.185066 7.244229 -6.561715
1305031451.829631 3.161118 7.244229 -6.274340
1305031451.830620 3.161118 7.244229 -6.274340
1305031451.831826 3.161118 7.244229 -6.274340
1305031451.832850 3.161118 7.244229 -6.274340
1305031451.835978 3.173092 7.148437 -6.178549
1305031451.837005 3.173092 7.148437 -6.178549
1305031451.840557 3.185066 7.148437 -5.915122
1305031451.841597 3.185066 7.148437 -5.915122
1305031451.844845 3.256909 7.196333 -5.699591
1305031451.845833 3.256909 7.196333 -5.699591
1305031451.849501 3.256909 6.908959 -5.555904
1305031451.850596 3.256909 6.908959 -5.555904
1305031451.851708 3.256909 6.908959 -5.555904
1305031451.852851 3.256909 6.908959 -5.555904
1305031451.855978 3.256909 6.765271 -5.555904
1305031451.856976 3.256909 6.765271 -5.555904
1305031451.860581 3.352701 6.956854 -5.603800
1305031451.861652 3.352701 6.956854 -5.603800
1305031451.864880 3.352701 6.956854 -5.795383
1305031451.865871 3.352701 6.956854 -5.795383
1305031451.869460 3.256909 6.861063 -5.915122
1305031451.870672 3.256909 6.861063 -5.915122
1305031451.871709 3.256909 6.861063 -5.915122
1305031451.872710 3.256909 6.861063 -5.915122
1305031451.875956 3.209014 6.837115 -6.226444
1305031451.876948 3.209014 6.837115 -6.226444
1305031451.880574 3.161118 6.669480 -6.274340
1305031451.881716 3.161118 6.669480 -6.274340
1305031451.884861 3.161118 6.861063 -6.561715
1305031451.885829 3.161118 6.861063 -6.561715
1305031451.889598 2.873744 7.196333 -6.274340
1305031451.890558 2.873744 7.196333 -6.274340
1305031451.891835 2.873744 7.196333 -6.274340
1305031451.892855 2.873744 7.196333 -6.274340
1305031451.896008 2.981509 7.435812 -6.082757
1305031451.896978 2.981509 7.435812 -6.082757
1305031451.900604 2.789926 7.627394 -5.891174
1305031451.901583 2.789926 7.627394 -5.891174
1305031451.904849 2.586369 7.531603 -5.508009
1305031451.905973 2.586369 7.531603 -5.508009
1305031451.909439 2.418734 7.627394 -5.412217
1305031451.910444 2.418734 7.627394 -5.412217
1305031451.911734 2.418734 7.627394 -5.412217
1305031451.912708 2.418734 7.627394 -5.412217
1305031451.915981 2.215177 7.651342 -5.076947
1305031451.916978 2.215177 7.651342 -5.076947
1305031451.920581 2.215177 7.615421 -4.933260
1305031451.921582 2.215177 7.615421 -4.933260
1305031451.924815 2.107412 7.435812 -5.029051
1305031451.926006 2.107412 7.435812 -5.029051
1305031451.929498 2.011621 7.531603 -4.933260
1305031451.930456 2.011621 7.531603 -4.933260
1305031451.931707 2.011621 7.531603 -4.933260
1305031451.932709 2.011621 7.531603 -4.933260
1305031451.935976 2.011621 7.627394 -5.124843
1305031451.936978 2.011621 7.627394 -5.124843
1305031451.940504 1.820038 7.627394 -5.460113
1305031451.941628 1.820038 7.627394 -5.460113
1305031451.944878 1.640429 7.818977 -5.508009
1305031451.945852 1.640429 7.818977 -5.508009
1305031451.947318 1.640429 7.818977 -5.508009
1305031451.950567 1.724246 8.585309 -5.508009
1305031451.951767 1.724246 8.585309 -5.508009
1305031451.954833 1.640429 8.585309 -5.699591
1305031451.955855 1.640429 8.585309 -5.699591
1305031451.959467 1.640429 8.681100 -5.891174
1305031451.960429 1.640429 8.681100 -5.891174
1305031451.961737 1.640429 8.681100 -5.891174
1305031451.962879 1.640429 8.681100 -5.891174
1305031451.965959 1.448846 8.393726 -6.322236
1305031451.967180 1.448846 8.393726 -6.322236
1305031451.970692 1.269237 8.393726 -6.657506
1305031451.971754 1.269237 8.393726 -6.657506
1305031451.974982 1.448846 8.010560 -6.753297
1305031451.975981 1.448846 8.010560 -6.753297
1305031451.979574 1.257263 7.818977 -6.944880
1305031451.980557 1.257263 7.818977 -6.944880
1305031451.981849 1.257263 7.818977 -6.944880
1305031451.982858 1.257263 7.818977 -6.944880
1305031451.986012 1.053706 7.627394 -7.136463
1305031451.986959 1.053706 7.627394 -7.136463
1305031451.990685 1.053706 7.292124 -7.471733
1305031451.991722 1.053706 7.292124 -7.471733
1305031451.994846 0.862123 7.148437 -7.423838
1305031451.995835 0.862123 7.148437 -7.423838
1305031451.999460 0.862123 6.861063 -7.615421
1305031452.000508 0.862123 6.861063 -7.615421
1305031452.001849 0.862123 6.861063 -7.615421
1305031452.002828 0.862123 6.861063 -7.615421
1305031452.005958 0.574749 6.861063 -7.807003
1305031452.006983 0.574749 6.861063 -7.807003
1305031452.010597 0.574749 6.956854 -7.615421
1305031452.011565 0.574749 6.956854 -7.615421
1305031452.014833 0.778306 6.669480 -7.807003
1305031452.015841 0.778306 6.669480 -7.807003
1305031452.019460 0.682514 6.669480 -7.902795
1305031452.020629 0.682514 6.669480 -7.902795
1305031452.021847 0.682514 6.669480 -7.902795
1305031452.022830 0.682514 6.669480 -7.902795
1305031452.025975 0.682514 6.525793 -7.807003
1305031452.026976 0.682514 6.525793 -7.807003
1305031452.030595 0.778306 6.573688 -7.998586
1305031452.031634 0.778306 6.573688 -7.998586
1305031452.034818 0.778306 6.861063 -8.094378
1305031452.036013 0.778306 6.861063 -8.094378
1305031452.039637 0.682514 6.885011 -8.190169
1305031452.040608 0.682514 6.885011 -8.190169
1305031452.041849 0.682514 6.885011 -8.190169
1305031452.042859 0.682514 6.885011 -8.190169
1305031452.045956 0.526853 6.453949 -8.573335
1305031452.047156 0.526853 6.453949 -8.573335
1305031452.050597 0.395140 6.118679 -8.477544
1305031452.051731 0.395140 6.118679 -8.477544
1305031452.054847 0.478957 5.903148 -8.573335
1305031452.055832 0.478957 5.903148 -8.573335
1305031452.059453 0.682514 5.328400 -8.860709
1305031452.060580 0.682514 5.328400 -8.860709
1305031452.061888 0.682514 5.328400 -8.860709
1305031452.062854 0.682514 5.328400 -8.860709
1305031452.066483 0.957915 6.082757 -7.998586
1305031452.067485 0.957915 6.082757 -7.998586
1305031452.070871 1.257263 6.525793 -7.423838
1305031452.071849 1.257263 6.525793 -7.423838
1305031452.074857 1.592533 6.477897 -7.375942
1305031452.075834 1.592533 6.477897 -7.375942
1305031452.079457 1.592533 6.094731 -7.232255
1305031452.080514 1.592533 6.094731 -7.232255
1305031452.081705 1.592533 6.094731 -7.232255
1305031452.082859 1.592533 6.094731 -7.232255
1305031452.086101 1.448846 6.286314 -6.705402
1305031452.087168 1.448846 6.286314 -6.705402
1305031452.090580 1.640429 6.286314 -6.681454
1305031452.091742 1.640429 6.286314 -6.681454
1305031452.094973 1.640429 5.903148 -6.849089
1305031452.095973 1.640429 5.903148 -6.849089
1305031452.099492 1.616481 5.711565 -6.753297
1305031452.100468 1.616481 5.711565 -6.753297
1305031452.101848 1.616481 5.711565 -6.753297
1305031452.102851 1.616481 5.711565 -6.753297
1305031452.105986 1.592533 5.615774 -7.088568
1305031452.106978 1.592533 5.615774 -7.088568
1305031452.110554 1.628455 5.663670 -7.040672
1305031452.111591 1.628455 5.663670 -7.040672
1305031452.114886 1.628455 5.615774 -7.040672
1305031452.115828 1.628455 5.615774 -7.040672
1305031452.119434 1.544637 5.711565 -7.028698
1305031452.120461 1.544637 5.711565 -7.028698
1305031452.121705 1.544637 5.711565 -7.028698
1305031452.122853 1.544637 5.711565 -7.028698
1305031452.125996 1.448846 5.735513 -6.705402
1305031452.127003 1.448846 5.735513 -6.705402
1305031452.130654 1.448846 5.711565 -6.657506
1305031452.131602 1.448846 5.711565 -6.657506
1305031452.134832 1.628455 5.424191 -6.849089
1305031452.135987 1.628455 5.424191 -6.849089
1305031452.139478 1.448846 5.328400 -6.657506
1305031452.140489 1.448846 5.328400 -6.657506
1305031452.141705 1.448846 5.328400 -6.657506
1305031452.142863 1.448846 5.328400 -6.657506
1305031452.146003 1.640429 5.232608 -6.657506
1305031452.146975 1.640429 5.232608 -6.657506
1305031452.150606 1.640429 5.352347 -6.370132
1305031452.151618 1.640429 5.352347 -6.370132
1305031452.154833 1.640429 5.663670 -6.274340
1305031452.155889 1.640429 5.663670 -6.274340
1305031452.159453 1.640429 5.711565 -6.298288
1305031452.160473 1.640429 5.711565 -6.298288
1305031452.161898 1.640429 5.711565 -6.298288
1305031452.162853 1.640429 5.711565 -6.298288
1305031452.165973 1.640429 5.711565 -6.370132
1305031452.167006 1.640429 5.711565 -6.370132
1305031452.170666 1.640429 5.807357 -6.849089
1305031452.171589 1.640429 5.807357 -6.849089
1305031452.174973 1.544637 6.142627 -6.681454
1305031452.176012 1.544637 6.142627 -6.681454
1305031452.179627 1.592533 6.813167 -6.944880
1305031452.180600 1.592533 6.813167 -6.944880
1305031452.181846 1.592533 6.813167 -6.944880
1305031452.182857 1.592533 6.813167 -6.944880
1305031452.186018 1.341080 6.765271 -7.136463
1305031452.186976 1.341080 6.765271 -7.136463
1305031452.190573 1.257263 6.573688 -7.040672
1305031452.191598 1.257263 6.573688 -7.040672
1305031452.194887 1.245289 6.573688 -7.232255
1305031452.195852 1.245289 6.573688 -7.232255
1305031452.197104 1.245289 6.573688 -7.232255
1305031452.198474 1.245289 6.573688 -7.232255
1305031452.201710 0.957915 6.669480 -7.232255
1305031452.202712 0.957915 6.669480 -7.232255
1305031452.205976 1.053706 6.501845 -7.232255
1305031452.206972 1.053706 6.501845 -7.232255
1305031452.210579 0.957915 6.286314 -7.423838
1305031452.211724 0.957915 6.286314 -7.423838
1305031452.214852 1.161471 6.094731 -7.519629
1305031452.215832 1.161471 6.094731 -7.519629
1305031452.219495 1.053706 6.094731 -7.615421
1305031452.220497 1.053706 6.094731 -7.615421
1305031452.221711 1.053706 6.094731 -7.615421
1305031452.222861 1.053706 6.094731 -7.615421
1305031452.226006 1.448846 5.903148 -7.615421
1305031452.227003 1.448846 5.903148 -7.615421
1305031452.230612 1.628455 6.094731 -7.423838
1305031452.231639 1.628455 6.094731 -7.423838
1305031452.234872 1.640429 6.094731 -7.232255
1305031452.235836 1.640429 6.094731 -7.232255
1305031452.239458 1.640429 6.094731 -7.040672
1305031452.240459 1.640429 6.094731 -7.040672
1305031452.241708 1.640429 6.094731 -7.040672
1305031452.242706 1.640429 6.094731 -7.040672
1305031452.245973 2.011621 5.711565 -7.016724
1305031452.246963 2.011621 5.711565 -7.016724
1305031452.250567 1.820038 5.807357 -6.944880
1305031452.251582 1.820038 5.807357 -6.944880
1305031452.254831 1.927803 5.711565 -6.944880
1305031452.255864 1.927803 5.711565 -6.944880
1305031452.259458 1.724246 5.711565 -7.040672
1305031452.260569 1.724246 5.711565 -7.040672
1305031452.261559 1.724246 5.711565 -7.040672
1305031452.264851 1.975699 5.711565 -7.040672
1305031452.265850 1.975699 5.711565 -7.040672
1305031452.267316 1.975699 5.711565 -7.040672
1305031452.270727 1.820038 6.094731 -6.657506
1305031452.271732 1.820038 6.094731 -6.657506
1305031452.274831 1.640429 6.094731 -6.298288
1305031452.276001 1.640429 6.094731 -6.298288
1305031452.279439 1.628455 5.903148 -6.465923
1305031452.280573 1.628455 5.903148 -6.465923
1305031452.281860 1.628455 5.903148 -6.465923
1305031452.282852 1.628455 5.903148 -6.465923
1305031452.285970 1.640429 6.094731 -6.753297
1305031452.286988 1.640429 6.094731 -6.753297
1305031452.290434 1.448846 6.094731 -7.040672
1305031452.291611 1.448846 6.094731 -7.040672
1305031452.294847 1.257263 6.286314 -7.040672
1305031452.295806 1.257263 6.286314 -7.040672
1305031452.297103 1.257263 6.286314 -7.040672
1305031452.298487 1.257263 6.286314 -7.040672
1305031452.301848 1.053706 6.669480 -6.753297
1305031452.302873 1.053706 6.669480 -6.753297
1305031452.305955 0.682514 6.956854 -6.561715
1305031452.306958 0.682514 6.956854 -6.561715
1305031452.310737 0.778306 7.244229 -6.465923
1305031452.311727 0.778306 7.244229 -6.465923
1305031452.314832 0.574749 7.268176 -6.274340
1305031452.315832 0.574749 7.268176 -6.274340
1305031452.319477 0.443035 7.340020 -6.082757
1305031452.320601 0.443035 7.340020 -6.082757
1305031452.321847 0.443035 7.340020 -6.082757
1305031452.322851 0.443035 7.340020 -6.082757
1305031452.326123 0.478957 7.627394 -5.555904
1305031452.329633 0.478957 7.531603 -5.603800
1305031452.330588 0.478957 7.531603 -5.603800
1305031452.331849 0.478957 7.531603 -5.603800
1305031452.332861 0.478957 7.531603 -5.603800
1305031452.335995 0.478957 7.435812 -5.508009
1305031452.336979 0.478957 7.435812 -5.508009
1305031452.340595 0.107765 7.627394 -5.220634
1305031452.341754 0.107765 7.627394 -5.220634
1305031452.344848 0.107765 7.627394 -5.220634
1305031452.345830 0.107765 7.627394 -5.220634
1305031452.349487 0.107765 7.627394 -5.316426
1305031452.350604 0.107765 7.627394 -5.316426
1305031452.351708 0.107765 7.627394 -5.316426
1305031452.352851 0.107765 7.627394 -5.316426
1305031452.356027 0.107765 7.818977 -5.124843
1305031452.356992 0.107765 7.818977 -5.124843
1305031452.360576 0.107765 7.651342 -5.496035
1305031452.361678 0.107765 7.651342 -5.496035
1305031452.364851 0.095791 7.675290 -5.699591
1305031452.365833 0.095791 7.675290 -5.699591
1305031452.369489 0.107765 7.627394 -5.603800
1305031452.370513 0.107765 7.627394 -5.603800
1305031452.371733 0.107765 7.627394 -5.603800
1305031452.372759 0.107765 7.627394 -5.603800
1305031452.375964 0.287374 7.531603 -5.699591
1305031452.376968 0.287374 7.531603 -5.699591
1305031452.380585 0.478957 7.148437 -6.178549
1305031452.381725 0.478957 7.148437 -6.178549
1305031452.385005 0.490931 7.627394 -5.939070
1305031452.385977 0.490931 7.627394 -5.939070
1305031452.389580 0.862123 7.627394 -6.274340
1305031452.390614 0.862123 7.627394 -6.274340
1305031452.391869 0.862123 7.627394 -6.274340
1305031452.392837 0.862123 7.627394 -6.274340
1305031452.396602 0.874097 7.244229 -6.657506
1305031452.397600 0.874097 7.244229 -6.657506
1305031452.400890 1.209367 6.813167 -6.657506
1305031452.401995 1.209367 6.813167 -6.657506
1305031452.405632 1.293185 6.477897 -6.753297
1305031452.406599 1.293185 6.477897 -6.753297
1305031452.409831 1.341080 6.286314 -6.849089
1305031452.411002 1.341080 6.286314 -6.849089
1305031452.414637 1.544637 5.998940 -7.040672
1305031452.415598 1.544637 5.998940 -7.040672
1305031452.416879 1.544637 5.998940 -7.040672
1305031452.417832 1.544637 5.998940 -7.040672
1305031452.421123 1.628455 5.316426 -7.423838
1305031452.422351 1.628455 5.316426 -7.423838
1305031452.425869 1.652403 4.562068 -7.423838
1305031452.426878 1.652403 4.562068 -7.423838
1305031452.429863 1.820038 4.178902 -7.711212
1305031452.430879 1.820038 4.178902 -7.711212
1305031452.434471 1.820038 3.987319 -7.471733
1305031452.435598 1.820038 3.987319 -7.471733
1305031452.436627 1.820038 3.987319 -7.471733
1305031452.439851 1.820038 4.083111 -7.615421
1305031452.440853 1.820038 4.083111 -7.615421
1305031452.442348 1.820038 4.083111 -7.615421
1305031452.445427 1.820038 4.178902 -7.423838
1305031452.446567 1.820038 4.178902 -7.423838
1305031452.449997 1.927803 4.562068 -7.064620
1305031452.450981 1.927803 4.562068 -7.064620
1305031452.454724 2.011621 4.945234 -7.040672
1305031452.455726 2.011621 4.945234 -7.040672
1305031452.456976 2.011621 4.945234 -7.040672
1305031452.457976 2.011621 4.945234 -7.040672
1305031452.461597 2.011621 4.753651 -7.040672
1305031452.462606 2.011621 4.753651 -7.040672
1305031452.465849 2.059516 4.897338 -7.064620
1305031452.466861 2.059516 4.897338 -7.064620
1305031452.470514 2.215177 4.945234 -7.136463
1305031452.471487 2.215177 4.945234 -7.136463
1305031452.474724 2.107412 4.945234 -7.136463
1305031452.475707 2.107412 4.945234 -7.136463
1305031452.476946 2.107412 4.945234 -7.136463
1305031452.477938 2.107412 4.945234 -7.136463
1305031452.481583 2.011621 5.136817 -7.423838
1305031452.482582 2.011621 5.136817 -7.423838
1305031452.485982 1.927803 5.328400 -7.423838
1305031452.486976 1.927803 5.328400 -7.423838
1305031452.490632 1.927803 5.328400 -7.711212
1305031452.491598 1.927803 5.328400 -7.711212
1305031452.494848 1.975699 5.328400 -7.807003
1305031452.495833 1.975699 5.328400 -7.807003
1305031452.499493 1.820038 5.328400 -7.807003
1305031452.500515 1.820038 5.328400 -7.807003
1305031452.501745 1.820038 5.328400 -7.807003
1305031452.502740 1.820038 5.328400 -7.807003
1305031452.506001 1.999647 5.615774 -7.998586
1305031452.506959 1.999647 5.615774 -7.998586
1305031452.510582 1.999647 5.711565 -7.519629
1305031452.511581 1.999647 5.711565 -7.519629
1305031452.514872 2.011621 5.711565 -7.519629
1305031452.515835 2.011621 5.711565 -7.519629
1305031452.519488 2.011621 5.328400 -7.615421
1305031452.520460 2.011621 5.328400 -7.615421
1305031452.521816 2.011621 5.328400 -7.615421
1305031452.522861 2.011621 5.328400 -7.615421
1305031452.526004 2.310969 5.136817 -7.411864
1305031452.526976 2.310969 5.136817 -7.411864
1305031452.530645 2.490578 4.945234 -7.328046
1305031452.531600 2.490578 4.945234 -7.328046
1305031452.534847 2.789926 4.753651 -7.423838
1305031452.535848 2.789926 4.753651 -7.423838
1305031452.537136 2.789926 4.753651 -7.423838
1305031452.538475 2.789926 4.753651 -7.423838
1305031452.541712 2.873744 4.562068 -7.088568
1305031452.542731 2.873744 4.562068 -7.088568
1305031452.546005 2.789926 4.514172 -7.040672
1305031452.547003 2.789926 4.514172 -7.040672
1305031452.550623 2.742030 4.370485 -7.136463
1305031452.551597 2.742030 4.370485 -7.136463
1305031452.554847 2.586369 4.514172 -7.088568
1305031452.555848 2.586369 4.514172 -7.088568
1305031452.559457 2.394786 4.562068 -7.136463
1305031452.560473 2.394786 4.562068 -7.136463
1305031452.561724 2.394786 4.562068 -7.136463
1305031452.562743 2.394786 4.562068 -7.136463
1305031452.566096 2.107412 5.041025 -6.753297
1305031452.567137 2.107412 5.041025 -6.753297
1305031452.570696 2.011621 5.328400 -6.657506
1305031452.571772 2.011621 5.328400 -6.657506
1305031452.574852 2.011621 5.424191 -6.657506
1305031452.575835 2.011621 5.424191 -6.657506
1305031452.579595 1.820038 5.903148 -6.370132
1305031452.580570 1.820038 5.903148 -6.370132
1305031452.581834 1.820038 5.903148 -6.370132
1305031452.582837 1.820038 5.903148 -6.370132
1305031452.585973 1.640429 6.286314 -6.370132
1305031452.586961 1.640429 6.286314 -6.370132
1305031452.590568 1.640429 6.106705 -6.657506
1305031452.591768 1.640429 6.106705 -6.657506
1305031452.594849 1.640429 6.094731 -6.657506
1305031452.595860 1.640429 6.094731 -6.657506
1305031452.597354 1.640429 6.094731 -6.657506
1305031452.598485 1.640429 6.094731 -6.657506
1305031452.601726 1.652403 6.382106 -7.040672
1305031452.602710 1.652403 6.382106 -7.040672
1305031452.605976 1.724246 6.382106 -7.232255
1305031452.606972 1.724246 6.382106 -7.232255
1305031452.610588 1.640429 6.382106 -7.399890
1305031452.611598 1.640429 6.382106 -7.399890
1305031452.614872 1.724246 6.190523 -7.399890
1305031452.615881 1.724246 6.190523 -7.399890
1305031452.619454 1.975699 6.142627 -7.328046
1305031452.620462 1.975699 6.142627 -7.328046
1305031452.621711 1.975699 6.142627 -7.328046
1305031452.622709 1.975699 6.142627 -7.328046
1305031452.625994 1.820038 5.903148 -7.232255
1305031452.626984 1.820038 5.903148 -7.232255
1305031452.630567 1.820038 5.998940 -7.088568
1305031452.631644 1.820038 5.998940 -7.088568
1305031452.634849 1.724246 5.903148 -6.944880
1305031452.635814 1.724246 5.903148 -6.944880
1305031452.637262 1.724246 5.903148 -6.944880
1305031452.638459 1.724246 5.903148 -6.944880
1305031452.641729 1.820038 5.903148 -6.657506
1305031452.642706 1.820038 5.903148 -6.657506
1305031452.645970 1.820038 5.807357 -6.657506
1305031452.647013 1.820038 5.807357 -6.657506
1305031452.650594 1.640429 5.903148 -6.657506
1305031452.651580 1.640429 5.903148 -6.657506
1305031452.654803 1.640429 6.094731 -6.561715
1305031452.655838 1.640429 6.094731 -6.561715
1305031452.656981 1.640429 6.094731 -6.561715
1305031452.658351 1.640429 6.094731 -6.561715
1305031452.661684 1.640429 6.118679 -6.465923
1305031452.662695 1.640429 6.118679 -6.465923
1305031452.665942 1.616481 6.094731 -6.753297
1305031452.666933 1.616481 6.094731 -6.753297
1305031452.670574 1.448846 6.286314 -6.657506
1305031452.671557 1.448846 6.286314 -6.657506
1305031452.674836 1.616481 6.190523 -6.669480
1305031452.675813 1.616481 6.190523 -6.669480
1305031452.679461 1.820038 6.286314 -7.088568
1305031452.680557 1.820038 6.286314 -7.088568
1305031452.681843 1.820038 6.286314 -7.088568
1305031452.682851 1.820038 6.286314 -7.088568
1305031452.685975 1.975699 6.525793 -7.399890
1305031452.686980 1.975699 6.525793 -7.399890
1305031452.690565 2.011621 6.477897 -7.471733
1305031452.691558 2.011621 6.477897 -7.471733
1305031452.694825 2.215177 6.382106 -7.711212
1305031452.695811 2.215177 6.382106 -7.711212
1305031452.699667 2.215177 6.142627 -7.902795
1305031452.700581 2.215177 6.142627 -7.902795
1305031452.701835 2.215177 6.142627 -7.902795
1305031452.702829 2.215177 6.142627 -7.902795
1305031452.705975 2.310969 5.711565 -8.166221
1305031452.706957 2.310969 5.711565 -8.166221
1305031452.710582 2.107412 5.519982 -8.190169
1305031452.711601 2.107412 5.519982 -8.190169
1305031452.714832 2.215177 5.328400 -7.998586
1305031452.715858 2.215177 5.328400 -7.998586
1305031452.719450 2.011621 5.328400 -7.807003
1305031452.720449 2.011621 5.328400 -7.807003
1305031452.721709 2.011621 5.328400 -7.807003
1305031452.722920 2.011621 5.328400 -7.807003
1305031452.725976 2.011621 5.136817 -7.807003
1305031452.726931 2.011621 5.136817 -7.807003
1305031452.730572 1.999647 4.945234 -7.435812
1305031452.731574 1.999647 4.945234 -7.435812
1305031452.734848 2.215177 4.945234 -7.328046
1305031452.735837 2.215177 4.945234 -7.328046
1305031452.739434 2.310969 5.280504 -7.040672
1305031452.740569 2.310969 5.280504 -7.040672
1305031452.741848 2.310969 5.280504 -7.040672
1305031452.742851 2.310969 5.280504 -7.040672
1305031452.745809 2.394786 5.376295 -7.016724
1305031452.746962 2.394786 5.376295 -7.016724
1305031452.750559 2.406760 5.519982 -7.136463
1305031452.751606 2.406760 5.519982 -7.136463
1305031452.754710 2.586369 5.663670 -7.423838
1305031452.755817 2.586369 5.663670 -7.423838
1305031452.756959 2.586369 5.663670 -7.423838
1305031452.758357 2.586369 5.663670 -7.423838
1305031452.761694 2.825848 5.723539 -7.807003
1305031452.762689 2.825848 5.723539 -7.807003
1305031452.765936 2.789926 5.759461 -8.142274
1305031452.766948 2.789926 5.759461 -8.142274
1305031452.770612 2.694135 5.711565 -8.190169
1305031452.771574 2.694135 5.711565 -8.190169
1305031452.774860 2.490578 5.711565 -8.214117
1305031452.775850 2.490578 5.711565 -8.214117
1305031452.779434 2.406760 5.807357 -8.381752
1305031452.780623 2.406760 5.807357 -8.381752
1305031452.781584 2.406760 5.807357 -8.381752
1305031452.784833 2.586369 5.711565 -8.585309
1305031452.785828 2.586369 5.711565 -8.585309
1305031452.789434 2.777952 5.711565 -8.573335
1305031452.790458 2.777952 5.711565 -8.573335
1305031452.791650 2.777952 5.711565 -8.573335
1305031452.792642 2.777952 5.711565 -8.573335
1305031452.795887 2.873744 5.424191 -8.764918
1305031452.796885 2.873744 5.424191 -8.764918
1305031452.800606 2.789926 5.376295 -8.573335
1305031452.801568 2.789926 5.376295 -8.573335
1305031452.804829 2.873744 5.328400 -8.764918
1305031452.805833 2.873744 5.328400 -8.764918
1305031452.809459 2.981509 5.304452 -8.860709
1305031452.810458 2.981509 5.304452 -8.860709
1305031452.811723 2.981509 5.304452 -8.860709
1305031452.812729 2.981509 5.304452 -8.860709
1305031452.815854 2.981509 5.232608 -8.764918
1305031452.816977 2.981509 5.232608 -8.764918
1305031452.820480 2.981509 4.945234 -8.764918
1305031452.821599 2.981509 4.945234 -8.764918
1305031452.824682 2.789926 4.753651 -8.764918
1305031452.825804 2.789926 4.753651 -8.764918
1305031452.826932 2.789926 4.753651 -8.764918
1305031452.828054 2.789926 4.753651 -8.764918
1305031452.831601 2.825848 4.562068 -8.381752
1305031452.832515 2.825848 4.562068 -8.381752
1305031452.835839 2.694135 4.562068 -8.190169
1305031452.836829 2.694135 4.562068 -8.190169
1305031452.840567 2.789926 4.753651 -7.998586
1305031452.841573 2.789926 4.753651 -7.998586
1305031452.844811 3.125196 4.897338 -7.902795
1305031452.845831 3.125196 4.897338 -7.902795
1305031452.849514 3.077300 5.041025 -7.615421
1305031452.850572 3.077300 5.041025 -7.615421
1305031452.851737 3.077300 5.041025 -7.615421
1305031452.852708 3.077300 5.041025 -7.615421
1305031452.855837 2.825848 5.316426 -7.615421
1305031452.857009 2.825848 5.316426 -7.615421
1305031452.860439 2.981509 5.041025 -7.759108
1305031452.861553 2.981509 5.041025 -7.759108
1305031452.864805 2.789926 4.969182 -7.998586
1305031452.865803 2.789926 4.969182 -7.998586
1305031452.869456 2.981509 4.945234 -8.094378
1305031452.870456 2.981509 4.945234 -8.094378
1305031452.871704 2.981509 4.945234 -8.094378
1305031452.872703 2.981509 4.945234 -8.094378
1305031452.875829 2.981509 4.945234 -8.214117
1305031452.876862 2.981509 4.945234 -8.214117
1305031452.880460 3.077300 4.945234 -8.381752
1305031452.881627 3.077300 4.945234 -8.381752
1305031452.884728 2.981509 5.136817 -8.381752
1305031452.885850 2.981509 5.136817 -8.381752
1305031452.886961 2.981509 5.136817 -8.381752
1305031452.887959 2.981509 5.136817 -8.381752
1305031452.891557 2.981509 5.328400 -8.166221
1305031452.892691 2.981509 5.328400 -8.166221
1305031452.895835 2.981509 5.376295 -8.190169
1305031452.896933 2.981509 5.376295 -8.190169
1305031452.900465 2.981509 5.711565 -8.190169
1305031452.901584 2.981509 5.711565 -8.190169
1305031452.904721 2.981509 5.711565 -8.190169
1305031452.905849 2.981509 5.711565 -8.190169
1305031452.907145 2.981509 5.711565 -8.190169
1305031452.908362 2.981509 5.711565 -8.190169
1305031452.911762 2.789926 5.807357 -8.166221
1305031452.912726 2.789926 5.807357 -8.166221
1305031452.915831 2.777952 5.807357 -7.998586
1305031452.916833 2.777952 5.807357 -7.998586
1305031452.920494 2.406760 5.711565 -8.094378
1305031452.921636 2.406760 5.711565 -8.094378
1305031452.924698 2.406760 5.687618 -7.830951
1305031452.925807 2.406760 5.687618 -7.830951
1305031452.927391 2.406760 5.687618 -7.830951
1305031452.928433 2.406760 5.687618 -7.830951
1305031452.931682 2.107412 5.711565 -7.471733
1305031452.932696 2.107412 5.711565 -7.471733
1305031452.935994 2.023594 5.903148 -7.375942
1305031452.936962 2.023594 5.903148 -7.375942
1305031452.940459 2.011621 6.094731 -7.375942
1305031452.941561 2.011621 6.094731 -7.375942
1305031452.944839 2.011621 6.286314 -7.052646
1305031452.945941 2.011621 6.286314 -7.052646
1305031452.949461 2.011621 6.477897 -7.088568
1305031452.950730 2.011621 6.477897 -7.088568
1305031452.951833 2.011621 6.477897 -7.088568
1305031452.952858 2.011621 6.477897 -7.088568
1305031452.955960 1.820038 6.477897 -7.328046
1305031452.956995 1.820038 6.477897 -7.328046
1305031452.960567 1.628455 6.669480 -7.040672
1305031452.961562 1.628455 6.669480 -7.040672
1305031452.964814 1.628455 6.669480 -7.136463
1305031452.966420 1.628455 6.669480 -7.136463
1305031452.969395 1.640429 6.861063 -6.849089
1305031452.970428 1.640429 6.861063 -6.849089
1305031452.971637 1.640429 6.861063 -6.849089
1305031452.972715 1.640429 6.861063 -6.849089
1305031452.975962 1.544637 6.861063 -6.657506
1305031452.976966 1.544637 6.861063 -6.657506
1305031452.980566 1.544637 6.908959 -6.370132
1305031452.981558 1.544637 6.908959 -6.370132
1305031452.984834 1.592533 6.885011 -6.370132
1305031452.985816 1.592533 6.885011 -6.370132
1305031452.989439 1.628455 6.837115 -6.657506
1305031452.990521 1.628455 6.837115 -6.657506
1305031452.991729 1.628455 6.837115 -6.657506
1305031452.992731 1.628455 6.837115 -6.657506
1305031452.995944 1.640429 6.669480 -6.609610
1305031452.996945 1.640429 6.669480 -6.609610
1305031453.000451 1.628455 6.573688 -6.669480
1305031453.001606 1.628455 6.573688 -6.669480
1305031453.004858 1.448846 6.669480 -6.657506
1305031453.005852 1.448846 6.669480 -6.657506
1305031453.009435 1.544637 6.573688 -6.944880
1305031453.010462 1.544637 6.573688 -6.944880
1305031453.011686 1.544637 6.573688 -6.944880
1305031453.012708 1.544637 6.573688 -6.944880
1305031453.015961 1.628455 6.477897 -7.232255
1305031453.016961 1.628455 6.477897 -7.232255
1305031453.020581 1.448846 6.477897 -7.232255
1305031453.021561 1.448846 6.477897 -7.232255
1305031453.024827 1.257263 6.286314 -7.375942
1305031453.025816 1.257263 6.286314 -7.375942
1305031453.029434 1.269237 6.286314 -7.711212
1305031453.030582 1.269237 6.286314 -7.711212
1305031453.031764 1.269237 6.286314 -7.711212
1305031453.032691 1.269237 6.286314 -7.711212
1305031453.035819 1.257263 6.286314 -7.615421
1305031453.036931 1.257263 6.286314 -7.615421
1305031453.040507 1.257263 6.286314 -7.711212
1305031453.041560 1.257263 6.286314 -7.711212
1305031453.044853 1.257263 6.453949 -7.807003
1305031453.045851 1.257263 6.453949 -7.807003
1305031453.047446 1.257263 6.453949 -7.807003
1305031453.050724 0.957915 6.477897 -7.818977
1305031453.051725 0.957915 6.477897 -7.818977
1305031453.054836 1.053706 6.477897 -7.998586
1305031453.055831 1.053706 6.477897 -7.998586
1305031453.059450 0.862123 6.573688 -7.795029
1305031453.060431 0.862123 6.573688 -7.795029
1305031453.061681 0.862123 6.573688 -7.795029
1305031453.062811 0.862123 6.573688 -7.795029
1305031453.065938 1.053706 6.669480 -7.807003
1305031453.067644 1.053706 6.669480 -7.807003
1305031453.070571 1.053706 6.477897 -7.519629
1305031453.071589 1.053706 6.477897 -7.519629
1305031453.074821 0.957915 6.573688 -7.615421
1305031453.075807 0.957915 6.573688 -7.615421
1305031453.079430 0.957915 6.477897 -7.615421
1305031453.080427 0.957915 6.477897 -7.615421
1305031453.081711 0.957915 6.477897 -7.615421
1305031453.082846 0.957915 6.477897 -7.615421
1305031453.085939 0.886071 6.477897 -7.375942
1305031453.087102 0.886071 6.477897 -7.375942
1305031453.090611 1.053706 6.477897 -7.471733
1305031453.091565 1.053706 6.477897 -7.471733
1305031453.094822 0.957915 6.477897 -7.232255
1305031453.095810 0.957915 6.477897 -7.232255
1305031453.099446 1.053706 6.453949 -7.232255
1305031453.100580 1.053706 6.453949 -7.232255
1305031453.101810 1.053706 6.453949 -7.232255
1305031453.102820 1.053706 6.453949 -7.232255
1305031453.105979 0.874097 6.382106 -7.615421
1305031453.106962 0.874097 6.382106 -7.615421
1305031453.110562 0.957915 6.382106 -7.807003
1305031453.111560 0.957915 6.382106 -7.807003
1305031453.114836 0.862123 6.286314 -7.423838
1305031453.115835 0.862123 6.286314 -7.423838
1305031453.119455 0.862123 6.430001 -7.615421
1305031453.120469 0.862123 6.430001 -7.615421
1305031453.121852 0.862123 6.430001 -7.615421
1305031453.122854 0.862123 6.430001 -7.615421
1305031453.125939 0.682514 6.573688 -7.519629
1305031453.126929 0.682514 6.573688 -7.519629
1305031453.130571 0.778306 6.573688 -7.423838
1305031453.131554 0.778306 6.573688 -7.423838
1305031453.134849 0.862123 6.861063 -7.399890
1305031453.135821 0.862123 6.861063 -7.399890
1305031453.139471 0.862123 6.765271 -7.423838
1305031453.140463 0.862123 6.765271 -7.423838
1305031453.141709 0.862123 6.765271 -7.423838
1305031453.142858 0.862123 6.765271 -7.423838
1305031453.145958 0.826201 6.861063 -7.423838
1305031453.146958 0.826201 6.861063 -7.423838
1305031453.150568 0.574749 6.908959 -7.423838
1305031453.151564 0.574749 6.908959 -7.423838
1305031453.154865 0.526853 6.956854 -7.759108
1305031453.155832 0.526853 6.956854 -7.759108
1305031453.157461 0.526853 6.956854 -7.759108
1305031453.160555 0.478957 7.148437 -7.998586
1305031453.161679 0.478957 7.148437 -7.998586
1305031453.164806 0.466983 7.052646 -8.094378
1305031453.165799 0.466983 7.052646 -8.094378
1305031453.169451 0.191583 7.244229 -8.166221
1305031453.170452 0.191583 7.244229 -8.166221
1305031453.171681 0.191583 7.244229 -8.166221
1305031453.172681 0.191583 7.244229 -8.166221
1305031453.175836 0.011974 7.244229 -8.214117
1305031453.176864 0.011974 7.244229 -8.214117
1305031453.180444 -0.191583 7.196333 -8.285961
1305031453.181587 -0.191583 7.196333 -8.285961
1305031453.184742 -0.083818 7.244229 -8.142274
1305031453.185852 -0.083818 7.244229 -8.142274
1305031453.187135 -0.083818 7.244229 -8.142274
1305031453.188489 -0.083818 7.244229 -8.142274
1305031453.191653 -0.083818 7.340020 -8.094378
1305031453.192639 -0.083818 7.340020 -8.094378
1305031453.195918 -0.083818 7.196333 -8.094378
1305031453.196885 -0.083818 7.196333 -8.094378
1305031453.200593 -0.275400 7.340020 -7.998586
1305031453.201568 -0.275400 7.340020 -7.998586
1305031453.204853 0.059870 7.268176 -7.807003
1305031453.205814 0.059870 7.268176 -7.807003
1305031453.209437 0.059870 7.244229 -7.615421
1305031453.210432 0.059870 7.244229 -7.615421
1305031453.211729 0.059870 7.244229 -7.615421
1305031453.212805 0.059870 7.244229 -7.615421
1305031453.215986 -0.083818 7.244229 -7.783056
1305031453.216961 -0.083818 7.244229 -7.783056
1305031453.220620 -0.083818 7.340020 -7.807003
1305031453.221602 -0.083818 7.340020 -7.807003
1305031453.224819 -0.083818 7.435812 -7.998586
1305031453.225806 -0.083818 7.435812 -7.998586
1305031453.229423 -0.083818 7.435812 -8.094378
1305031453.230471 -0.083818 7.435812 -8.094378
1305031453.231683 -0.083818 7.435812 -8.094378
1305031453.232702 -0.083818 7.435812 -8.094378
1305031453.236171 -0.371192 7.627394 -7.998586
1305031453.239998 -0.275400 7.603447 -8.285961
1305031453.240986 -0.275400 7.603447 -8.285961
1305031453.241935 -0.275400 7.603447 -8.285961
1305031453.245708 -0.275400 7.615421 -8.381752
1305031453.246686 -0.275400 7.615421 -8.381752
1305031453.247687 -0.275400 7.615421 -8.381752
1305031453.251118 -0.275400 7.627394 -8.525439
1305031453.254468 -0.275400 7.531603 -8.561361
1305031453.255434 -0.275400 7.531603 -8.561361
1305031453.256695 -0.275400 7.531603 -8.561361
1305031453.257848 -0.275400 7.531603 -8.561361
1305031453.260817 -0.275400 7.435812 -8.381752
1305031453.261931 -0.275400 7.435812 -8.381752
1305031453.265576 -0.323296 7.292124 -8.190169
1305031453.266556 -0.323296 7.292124 -8.190169
1305031453.270223 -0.275400 7.435812 -7.998586
1305031453.271441 -0.275400 7.435812 -7.998586
1305031453.272448 -0.275400 7.435812 -7.998586
1305031453.273434 -0.275400 7.435812 -7.998586
1305031453.276830 -0.083818 7.052646 -7.902795
1305031453.277805 -0.083818 7.052646 -7.902795
1305031453.280826 0.107765 6.861063 -7.902795
1305031453.281952 0.107765 6.861063 -7.902795
1305031453.285583 0.107765 6.861063 -7.759108
1305031453.286569 0.107765 6.861063 -7.759108
1305031453.289806 0.107765 6.573688 -7.711212
1305031453.290842 0.107765 6.573688 -7.711212
1305031453.291924 0.107765 6.573688 -7.711212
1305031453.293060 0.107765 6.573688 -7.711212
1305031453.296561 0.191583 6.477897 -7.328046
1305031453.297695 0.191583 6.477897 -7.328046
1305031453.300836 0.143687 6.477897 -7.411864
1305031453.301950 0.143687 6.477897 -7.411864
1305031453.305579 0.107765 6.573688 -7.423838
1305031453.306576 0.107765 6.573688 -7.423838
1305031453.309811 0.287374 6.669480 -7.519629
1305031453.310813 0.287374 6.669480 -7.519629
1305031453.314452 0.287374 6.956854 -7.423838
1305031453.315564 0.287374 6.956854 -7.423838
1305031453.316688 0.287374 6.956854 -7.423838
1305031453.317813 0.287374 6.956854 -7.423838
1305031453.320815 0.287374 7.148437 -7.807003
1305031453.322099 0.287374 7.148437 -7.807003
1305031453.325570 0.395140 7.220281 -7.807003
1305031453.326542 0.395140 7.220281 -7.807003
1305031453.329787 0.478957 7.244229 -7.902795
1305031453.330757 0.478957 7.244229 -7.902795
1305031453.334492 0.478957 7.196333 -7.854899
1305031453.335437 0.478957 7.196333 -7.854899
1305031453.336694 0.478957 7.196333 -7.854899
1305031453.337806 0.478957 7.196333 -7.854899
1305031453.340984 0.287374 7.052646 -8.285961
1305031453.341943 0.287374 7.052646 -8.285961
1305031453.345721 0.287374 6.861063 -8.573335
1305031453.346702 0.287374 6.861063 -8.573335
1305031453.349824 0.119739 6.813167 -8.381752
1305031453.350823 0.119739 6.813167 -8.381752
1305031453.354598 0.395140 6.573688 -8.477544
1305031453.355559 0.395140 6.573688 -8.477544
1305031453.356802 0.395140 6.573688 -8.477544
1305031453.357809 0.395140 6.573688 -8.477544
1305031453.360815 0.443035 6.501845 -8.381752
1305031453.361928 0.443035 6.501845 -8.381752
1305031453.365554 0.143687 6.382106 -8.190169
1305031453.366559 0.143687 6.382106 -8.190169
1305031453.369848 0.107765 6.286314 -8.178195
1305031453.370827 0.107765 6.286314 -8.178195
1305031453.374457 0.143687 6.286314 -8.190169
1305031453.375427 0.143687 6.286314 -8.190169
1305031453.376683 0.143687 6.286314 -8.190169
1305031453.377678 0.143687 6.286314 -8.190169
1305031453.380967 0.287374 6.286314 -7.807003
1305031453.381951 0.287374 6.286314 -7.807003
1305031453.385588 0.287374 6.430001 -7.711212
1305031453.386566 0.287374 6.430001 -7.711212
1305031453.389812 0.287374 6.477897 -7.615421
1305031453.390823 0.287374 6.477897 -7.615421
1305031453.394439 0.107765 6.477897 -7.615421
1305031453.395427 0.107765 6.477897 -7.615421
1305031453.396711 0.107765 6.477897 -7.615421
1305031453.397696 0.107765 6.477897 -7.615421
1305031453.400946 0.395140 6.573688 -7.423838
1305031453.401951 0.395140 6.573688 -7.423838
1305031453.405566 0.478957 6.669480 -7.423838
1305031453.406553 0.478957 6.669480 -7.423838
1305031453.409817 0.287374 6.861063 -7.232255
1305031453.410830 0.287374 6.861063 -7.232255
1305031453.414462 0.478957 6.765271 -7.423838
1305031453.415438 0.478957 6.765271 -7.423838
1305031453.416689 0.478957 6.765271 -7.423838
1305031453.417823 0.478957 6.765271 -7.423838
1305031453.420839 0.466983 6.861063 -7.423838
1305031453.421966 0.466983 6.861063 -7.423838
1305031453.425559 0.395140 6.861063 -7.423838
1305031453.426556 0.395140 6.861063 -7.423838
1305031453.429809 0.682514 6.837115 -7.519629
1305031453.430806 0.682514 6.837115 -7.519629
1305031453.434462 0.502905 6.956854 -7.423838
1305031453.435436 0.502905 6.956854 -7.423838
1305031453.436707 0.502905 6.956854 -7.423838
1305031453.437801 0.502905 6.956854 -7.423838
1305031453.440992 0.682514 6.908959 -7.615421
1305031453.441981 0.682514 6.908959 -7.615421
1305031453.445560 0.957915 6.861063 -7.807003
1305031453.446567 0.957915 6.861063 -7.807003
1305031453.449857 0.862123 6.956854 -7.854899
1305031453.450816 0.862123 6.956854 -7.854899
1305031453.454584 0.862123 6.765271 -8.166221
1305031453.455602 0.862123 6.765271 -8.166221
1305031453.456687 0.862123 6.765271 -8.166221
1305031453.457858 0.862123 6.765271 -8.166221
1305031453.460940 0.910019 6.669480 -8.142274
1305031453.461925 0.910019 6.669480 -8.142274
1305031453.465567 1.053706 6.477897 -8.142274
1305031453.466558 1.053706 6.477897 -8.142274
1305031453.469833 1.257263 6.525793 -7.998586
1305031453.470861 1.257263 6.525793 -7.998586
1305031453.474462 1.257263 6.525793 -7.902795
1305031453.475431 1.257263 6.525793 -7.902795
1305031453.476699 1.257263 6.525793 -7.902795
1305031453.477685 1.257263 6.525793 -7.902795
1305031453.480969 1.293185 6.573688 -8.190169
1305031453.481941 1.293185 6.573688 -8.190169
1305031453.485582 1.341080 6.525793 -8.142274
1305031453.486596 1.341080 6.525793 -8.142274
1305031453.489815 1.257263 6.477897 -8.094378
1305031453.490818 1.257263 6.477897 -8.094378
1305031453.494437 1.293185 6.477897 -7.902795
1305031453.495459 1.293185 6.477897 -7.902795
1305031453.496683 1.293185 6.477897 -7.902795
1305031453.497801 1.293185 6.477897 -7.902795
1305031453.500841 1.448846 6.573688 -7.854899
1305031453.501954 1.448846 6.573688 -7.854899
1305031453.505574 1.592533 6.669480 -7.902795
1305031453.506554 1.592533 6.669480 -7.902795
1305031453.509818 1.544637 6.669480 -7.902795
1305031453.510828 1.544637 6.669480 -7.902795
1305031453.514471 1.544637 6.573688 -7.807003
1305031453.515488 1.544637 6.573688 -7.807003
1305031453.516736 1.544637 6.573688 -7.807003
1305031453.517811 1.544637 6.573688 -7.807003
1305031453.520797 1.257263 6.489871 -7.783056
1305031453.521972 1.257263 6.489871 -7.783056
1305031453.525443 1.257263 6.477897 -7.615421
1305031453.526590 1.257263 6.477897 -7.615421
1305031453.529813 1.053706 6.477897 -7.136463
1305031453.530805 1.053706 6.477897 -7.136463
1305031453.534465 1.341080 6.477897 -7.040672
1305031453.535450 1.341080 6.477897 -7.040672
1305031453.536697 1.341080 6.477897 -7.040672
1305031453.537815 1.341080 6.477897 -7.040672
1305031453.540982 1.640429 6.573688 -6.657506
1305031453.541966 1.640429 6.573688 -6.657506
1305031453.545560 1.448846 6.669480 -6.465923
1305031453.546728 1.448846 6.669480 -6.465923
1305031453.549809 1.640429 6.669480 -6.561715
1305031453.550870 1.640429 6.669480 -6.561715
1305031453.554464 1.820038 6.813167 -6.465923
1305031453.555436 1.820038 6.813167 -6.465923
1305031453.556726 1.820038 6.813167 -6.465923
1305031453.557811 1.820038 6.813167 -6.465923
1305031453.560817 1.820038 6.861063 -6.849089
1305031453.561929 1.820038 6.861063 -6.849089
1305031453.565599 1.820038 6.849089 -6.944880
1305031453.566563 1.820038 6.849089 -6.944880
1305031453.569813 1.975699 6.861063 -6.992776
1305031453.570813 1.975699 6.861063 -6.992776
1305031453.574458 2.011621 6.861063 -7.088568
1305031453.575426 2.011621 6.861063 -7.088568
1305031453.576680 2.011621 6.861063 -7.088568
1305031453.577674 2.011621 6.861063 -7.088568
1305031453.580974 2.215177 6.669480 -7.423838
1305031453.581939 2.215177 6.669480 -7.423838
1305031453.585797 2.310969 6.477897 -7.471733
1305031453.586689 2.310969 6.477897 -7.471733
1305031453.587684 2.310969 6.477897 -7.471733
1305031453.591115 2.490578 6.286314 -7.807003
1305031453.594440 2.789926 6.094731 -7.902795
1305031453.595552 2.789926 6.094731 -7.902795
1305031453.596682 2.789926 6.094731 -7.902795
1305031453.597804 2.789926 6.094731 -7.902795
1305031453.600838 2.586369 5.723539 -7.902795
1305031453.601960 2.586369 5.723539 -7.902795
1305031453.605451 2.394786 5.615774 -7.711212
1305031453.606570 2.394786 5.615774 -7.711212
1305031453.609707 2.215177 5.352347 -7.423838
1305031453.610912 2.215177 5.352347 -7.423838
1305031453.611963 2.215177 5.352347 -7.423838
1305031453.612943 2.215177 5.352347 -7.423838
1305031453.616734 2.215177 5.615774 -7.232255
1305031453.617686 2.215177 5.615774 -7.232255
1305031453.620998 2.059516 5.735513 -7.064620
1305031453.621979 2.059516 5.735513 -7.064620
1305031453.625561 2.310969 5.998940 -7.040672
1305031453.626605 2.310969 5.998940 -7.040672
1305031453.629832 2.011621 6.286314 -6.944880
1305031453.630924 2.011621 6.286314 -6.944880
1305031453.634434 1.999647 6.477897 -6.992776
1305031453.635567 1.999647 6.477897 -6.992776
1305031453.636693 1.999647 6.477897 -6.992776
1305031453.637801 1.999647 6.477897 -6.992776
1305031453.640829 1.724246 6.525793 -6.657506
1305031453.641943 1.724246 6.525793 -6.657506
1305031453.645578 1.640429 6.765271 -6.465923
1305031453.646574 1.640429 6.765271 -6.465923
1305031453.649827 1.676350 6.849089 -6.370132
1305031453.650838 1.676350 6.849089 -6.370132
1305031453.654467 1.820038 7.148437 -5.986966
1305031453.655585 1.820038 7.148437 -5.986966
1305031453.656710 1.820038 7.148437 -5.986966
1305031453.657851 1.820038 7.148437 -5.986966
1305031453.660944 2.011621 7.435812 -5.867226
1305031453.661931 2.011621 7.435812 -5.867226
1305031453.665572 2.023594 7.579499 -5.699591
1305031453.666565 2.023594 7.579499 -5.699591
1305031453.669826 2.215177 7.435812 -5.843279
1305031453.670827 2.215177 7.435812 -5.843279
1305031453.674449 2.107412 7.244229 -5.508009
1305031453.675434 2.107412 7.244229 -5.508009
1305031453.676686 2.107412 7.244229 -5.508009
1305031453.677810 2.107412 7.244229 -5.508009
1305031453.680948 2.059516 7.196333 -5.891174
1305031453.682052 2.059516 7.196333 -5.891174
1305031453.685572 2.011621 6.873037 -5.891174
1305031453.686585 2.011621 6.873037 -5.891174
1305031453.689808 1.975699 6.669480 -5.939070
1305031453.690977 1.975699 6.669480 -5.939070
1305031453.694437 1.927803 6.765271 -6.178549
1305031453.695554 1.927803 6.765271 -6.178549
1305031453.696711 1.927803 6.765271 -6.178549
1305031453.697801 1.927803 6.765271 -6.178549
1305031453.700836 1.820038 6.765271 -6.274340
1305031453.701980 1.820038 6.765271 -6.274340
1305031453.705571 1.640429 6.813167 -6.370132
1305031453.706571 1.640429 6.813167 -6.370132
1305031453.709732 1.640429 6.861063 -6.465923
1305031453.710820 1.640429 6.861063 -6.465923
1305031453.711958 1.640429 6.861063 -6.465923
1305031453.713092 1.640429 6.861063 -6.465923
1305031453.716591 1.448846 7.052646 -6.705402
1305031453.717690 1.448846 7.052646 -6.705402
1305031453.720941 1.269237 7.244229 -6.657506
1305031453.721965 1.269237 7.244229 -6.657506
1305031453.725602 1.245289 7.435812 -6.465923
1305031453.726604 1.245289 7.435812 -6.465923
1305031453.729830 0.957915 7.627394 -6.274340
1305031453.730923 0.957915 7.627394 -6.274340
1305031453.734562 0.957915 7.962665 -5.986966
1305031453.735575 0.957915 7.962665 -5.986966
1305031453.736707 0.957915 7.962665 -5.986966
1305031453.737813 0.957915 7.962665 -5.986966
1305031453.740947 1.053706 8.297935 -5.316426
1305031453.742075 1.053706 8.297935 -5.316426
1305031453.745703 1.209367 8.585309 -4.837468
1305031453.746692 1.209367 8.585309 -4.837468
1305031453.749836 1.341080 8.489518 -4.693781
1305031453.750972 1.341080 8.489518 -4.693781
1305031453.754458 1.293185 8.393726 -4.454303
1305031453.755433 1.293185 8.393726 -4.454303
1305031453.756708 1.293185 8.393726 -4.454303
1305031453.757852 1.293185 8.393726 -4.454303
1305031453.760939 1.448846 8.489518 -4.166928
1305031453.761930 1.448846 8.489518 -4.166928
1305031453.765556 1.628455 8.381752 -4.262720
1305031453.766555 1.628455 8.381752 -4.262720
1305031453.769961 1.628455 8.202143 -4.346537
1305031453.770833 1.628455 8.202143 -4.346537
1305031453.774470 1.628455 8.202143 -4.454303
1305031453.775426 1.628455 8.202143 -4.454303
1305031453.776701 1.628455 8.202143 -4.454303
1305031453.777694 1.628455 8.202143 -4.454303
1305031453.780967 1.640429 8.010560 -4.789573
1305031453.781957 1.640429 8.010560 -4.789573
1305031453.785583 1.628455 7.962665 -4.933260
1305031453.786586 1.628455 7.962665 -4.933260
1305031453.789808 1.628455 7.914769 -5.316426
1305031453.790812 1.628455 7.914769 -5.316426
1305031453.794441 1.448846 7.962665 -5.699591
1305031453.795555 1.448846 7.962665 -5.699591
1305031453.796682 1.448846 7.962665 -5.699591
1305031453.797804 1.448846 7.962665 -5.699591
1305031453.800841 1.448846 7.914769 -5.891174
1305031453.801984 1.448846 7.914769 -5.891174
1305031453.805571 1.257263 7.818977 -5.891174
1305031453.806572 1.257263 7.818977 -5.891174
1305031453.809816 1.161471 8.010560 -5.915122
1305031453.810839 1.161471 8.010560 -5.915122
1305031453.811959 1.161471 8.010560 -5.915122
1305031453.813156 1.161471 8.010560 -5.915122
1305031453.816740 1.053706 8.297935 -5.795383
1305031453.817680 1.053706 8.297935 -5.795383
1305031453.820854 1.209367 8.297935 -5.699591
1305031453.821959 1.209367 8.297935 -5.699591
1305031453.825569 1.053706 8.393726 -5.508009
1305031453.826621 1.053706 8.393726 -5.508009
1305031453.829813 1.245289 8.441622 -5.316426
1305031453.830804 1.245289 8.441622 -5.316426
1305031453.834439 1.053706 8.489518 -5.316426
1305031453.835574 1.053706 8.489518 -5.316426
1305031453.836582 1.053706 8.489518 -5.316426
1305031453.839827 0.874097 8.681100 -5.124843
1305031453.840814 0.874097 8.681100 -5.124843
1305031453.844508 0.778306 8.585309 -5.124843
1305031453.845743 0.778306 8.585309 -5.124843
1305031453.846689 0.778306 8.585309 -5.124843
1305031453.847680 0.778306 8.585309 -5.124843
1305031453.851024 0.478957 8.776892 -5.172738
1305031453.851958 0.478957 8.776892 -5.172738
1305031453.855583 0.478957 8.776892 -5.316426
1305031453.856585 0.478957 8.776892 -5.316426
1305031453.859806 0.682514 8.872683 -4.933260
1305031453.860799 0.682514 8.872683 -4.933260
1305031453.864435 0.682514 9.160058 -4.933260
1305031453.865451 0.682514 9.160058 -4.933260
1305031453.866763 0.682514 9.160058 -4.933260
1305031453.867689 0.682514 9.160058 -4.933260
1305031453.870985 0.862123 9.255849 -4.837468
1305031453.871975 0.862123 9.255849 -4.837468
1305031453.875582 0.886071 9.351641 -5.124843
1305031453.876564 0.886071 9.351641 -5.124843
1305031453.879830 0.957915 9.351641 -5.124843
1305031453.880840 0.957915 9.351641 -5.124843
1305031453.884480 0.957915 8.968475 -5.112869
1305031453.885592 0.957915 8.968475 -5.112869
1305031453.886739 0.957915 8.968475 -5.112869
1305031453.887852 0.957915 8.968475 -5.112869
1305031453.890861 1.257263 8.681100 -5.029051
1305031453.891924 1.257263 8.681100 -5.029051
1305031453.895430 1.257263 8.202143 -4.789573
1305031453.896427 1.257263 8.202143 -4.789573
1305031453.899816 1.544637 7.962665 -4.550094
1305031453.900828 1.544637 7.962665 -4.550094
1305031453.904465 1.724246 7.627394 -4.406407
1305031453.905435 1.724246 7.627394 -4.406407
1305031453.906448 1.724246 7.627394 -4.406407
1305031453.909808 1.820038 7.256203 -4.166928
1305031453.910815 1.820038 7.256203 -4.166928
1305031453.914459 1.820038 7.052646 -4.262720
1305031453.915448 1.820038 7.052646 -4.262720
1305031453.916693 1.820038 7.052646 -4.262720
1305031453.917814 1.820038 7.052646 -4.262720
1305031453.920981 1.820038 6.956854 -3.975345
1305031453.921958 1.820038 6.956854 -3.975345
1305031453.925593 1.628455 7.052646 -3.975345
1305031453.926612 1.628455 7.052646 -3.975345
1305031453.929819 1.544637 7.052646 -4.071137
1305031453.930817 1.544637 7.052646 -4.071137
1305031453.934449 1.341080 7.244229 -4.166928
1305031453.935437 1.341080 7.244229 -4.166928
1305031453.936908 1.341080 7.244229 -4.166928
1305031453.939813 1.448846 7.435812 -4.166928
1305031453.940821 1.448846 7.435812 -4.166928
1305031453.944462 1.341080 7.627394 -4.550094
1305031453.945637 1.341080 7.627394 -4.550094
1305031453.946720 1.341080 7.627394 -4.550094
1305031453.947688 1.341080 7.627394 -4.550094
1305031453.950963 1.245289 7.914769 -4.789573
1305031453.951976 1.245289 7.914769 -4.789573
1305031453.955597 1.161471 8.010560 -5.124843
1305031453.956607 1.161471 8.010560 -5.124843
1305031453.959816 0.957915 8.106352 -5.172738
1305031453.960824 0.957915 8.106352 -5.172738
1305031453.964445 1.161471 8.202143 -5.508009
1305031453.965441 1.161471 8.202143 -5.508009
1305031453.966714 1.161471 8.202143 -5.508009
1305031453.967695 1.161471 8.202143 -5.508009
1305031453.970964 1.053706 8.106352 -5.699591
1305031453.971940 1.053706 8.106352 -5.699591
1305031453.975577 0.862123 8.058456 -5.867226
1305031453.976579 0.862123 8.058456 -5.867226
1305031453.979829 0.862123 7.998586 -5.891174
1305031453.980823 0.862123 7.998586 -5.891174
1305031453.984451 0.862123 7.962665 -5.316426
1305031453.985571 0.862123 7.962665 -5.316426
1305031453.986853 0.862123 7.962665 -5.316426
1305031453.987833 0.862123 7.962665 -5.316426
1305031453.990818 1.053706 7.723186 -5.124843
1305031453.991937 1.053706 7.723186 -5.124843
1305031453.995571 1.233315 7.651342 -4.550094
1305031453.996569 1.233315 7.651342 -4.550094
1305031453.999828 1.293185 7.639368 -4.358511
1305031454.000860 1.293185 7.639368 -4.358511
1305031454.004541 1.628455 7.627394 -4.358511
1305031454.005658 1.628455 7.627394 -4.358511
1305031454.006711 1.628455 7.627394 -4.358511
1305031454.007707 1.628455 7.627394 -4.358511
1305031454.010985 1.640429 7.627394 -4.166928
1305031454.011981 1.640429 7.627394 -4.166928
1305031454.015586 1.676350 7.435812 -4.358511
1305031454.016591 1.676350 7.435812 -4.358511
1305031454.019804 1.544637 7.435812 -4.358511
1305031454.020813 1.544637 7.435812 -4.358511
1305031454.024486 1.448846 7.244229 -4.406407
1305031454.025441 1.448846 7.244229 -4.406407
1305031454.026629 1.448846 7.244229 -4.406407
1305031454.029980 1.257263 7.196333 -4.741677
1305031454.030977 1.257263 7.196333 -4.741677
1305031454.034578 1.257263 7.052646 -4.789573
1305031454.035563 1.257263 7.052646 -4.789573
1305031454.036930 1.257263 7.052646 -4.789573
1305031454.037776 1.257263 7.052646 -4.789573
1305031454.040965 1.053706 7.340020 -5.112869
1305031454.041943 1.053706 7.340020 -5.112869
1305031454.045576 1.053706 7.435812 -5.100895
1305031454.046581 1.053706 7.435812 -5.100895
1305031454.049831 1.053706 7.639368 -5.496035
1305031454.050972 1.053706 7.639368 -5.496035
1305031454.054573 0.862123 7.998586 -5.508009
1305031454.055569 0.862123 7.998586 -5.508009
1305031454.056853 0.862123 7.998586 -5.508009
1305031454.057835 0.862123 7.998586 -5.508009
1305031454.060952 0.886071 7.986612 -5.891174
1305031454.061944 0.886071 7.986612 -5.891174
1305031454.065567 0.778306 7.818977 -5.891174
1305031454.066560 0.778306 7.818977 -5.891174
1305031454.069835 0.574749 8.010560 -5.986966
1305031454.070804 0.574749 8.010560 -5.986966
1305031454.074461 0.443035 8.010560 -5.891174
1305031454.075429 0.443035 8.010560 -5.891174
1305031454.076700 0.443035 8.010560 -5.891174
1305031454.077803 0.443035 8.010560 -5.891174
1305031454.080829 0.443035 8.058456 -5.699591
1305031454.081968 0.443035 8.058456 -5.699591
1305031454.085571 0.478957 8.010560 -5.699591
1305031454.086589 0.478957 8.010560 -5.699591
1305031454.089801 0.478957 8.106352 -5.531956
1305031454.090946 0.478957 8.106352 -5.531956
1305031454.094451 0.287374 8.010560 -5.531956
1305031454.095428 0.287374 8.010560 -5.531956
1305031454.096694 0.287374 8.010560 -5.531956
1305031454.097838 0.287374 8.010560 -5.531956
1305031454.100891 0.107765 8.010560 -5.316426
1305031454.101933 0.107765 8.010560 -5.316426
1305031454.105567 0.095791 8.058456 -5.172738
1305031454.106559 0.095791 8.058456 -5.172738
1305031454.109710 0.011974 8.202143 -5.029051
1305031454.110825 0.011974 8.202143 -5.029051
1305031454.111962 0.011974 8.202143 -5.029051
1305031454.113069 0.011974 8.202143 -5.029051
1305031454.116707 0.119739 8.393726 -4.933260
1305031454.117699 0.119739 8.393726 -4.933260
1305031454.120814 0.466983 8.585309 -5.124843
1305031454.121959 0.466983 8.585309 -5.124843
1305031454.125572 0.526853 8.393726 -5.220634
1305031454.126607 0.526853 8.393726 -5.220634
1305031454.129812 0.682514 8.381752 -5.124843
1305031454.130821 0.682514 8.381752 -5.124843
1305031454.134456 0.850149 8.010560 -5.508009
1305031454.135568 0.850149 8.010560 -5.508009
1305031454.136725 0.850149 8.010560 -5.508009
1305031454.137805 0.850149 8.010560 -5.508009
1305031454.140943 0.778306 7.579499 -5.699591
1305031454.141928 0.778306 7.579499 -5.699591
1305031454.145567 0.682514 7.244229 -5.891174
1305031454.146706 0.682514 7.244229 -5.891174
1305031454.149837 0.478957 6.956854 -5.891174
1305031454.150946 0.478957 6.956854 -5.891174
1305031454.154478 0.478957 6.861063 -5.891174
1305031454.155607 0.478957 6.861063 -5.891174
1305031454.156835 0.478957 6.861063 -5.891174
1305031454.157808 0.478957 6.861063 -5.891174
1305031454.160826 0.574749 6.849089 -6.082757
1305031454.161942 0.574749 6.849089 -6.082757
1305031454.165431 0.682514 6.861063 -6.082757
1305031454.166561 0.682514 6.861063 -6.082757
1305031454.169723 0.682514 7.052646 -6.274340
1305031454.170813 0.682514 7.052646 -6.274340
1305031454.171935 0.682514 7.052646 -6.274340
1305031454.173061 0.682514 7.052646 -6.274340
1305031454.176583 0.478957 7.196333 -6.465923
1305031454.177686 0.478957 7.196333 -6.465923
1305031454.180821 0.478957 7.052646 -6.465923
1305031454.181935 0.478957 7.052646 -6.465923
1305031454.185580 0.191583 7.052646 -6.657506
1305031454.186579 0.191583 7.052646 -6.657506
1305031454.189827 0.059870 6.861063 -6.465923
1305031454.190818 0.059870 6.861063 -6.465923
1305031454.194448 -0.275400 6.669480 -6.250392
1305031454.195430 -0.275400 6.669480 -6.250392
1305031454.196695 -0.275400 6.669480 -6.250392
1305031454.197725 -0.275400 6.669480 -6.250392
1305031454.200991 -0.658566 6.765271 -5.508009
1305031454.202065 -0.658566 6.765271 -5.508009
1305031454.205702 -0.850149 7.148437 -5.124843
1305031454.206692 -0.850149 7.148437 -5.124843
1305031454.209934 -0.658566 7.627394 -4.741677
1305031454.210959 -0.658566 7.627394 -4.741677
1305031454.214724 -0.574749 8.393726 -4.166928
1305031454.215697 -0.574749 8.393726 -4.166928
1305031454.216954 -0.574749 8.393726 -4.166928
1305031454.217962 -0.574749 8.393726 -4.166928
1305031454.221725 -0.275400 9.160058 -3.783762
1305031454.222712 -0.275400 9.160058 -3.783762
1305031454.225935 -0.083818 9.351641 -3.687971
1305031454.227011 -0.083818 9.351641 -3.687971
1305031454.230574 0.011974 9.447432 -3.783762
1305031454.231566 0.011974 9.447432 -3.783762
1305031454.234703 0.011974 9.351641 -3.616127
1305031454.235809 0.011974 9.351641 -3.616127
1305031454.236934 0.011974 9.351641 -3.616127
1305031454.238445 0.011974 9.351641 -3.616127
1305031454.241695 0.011974 8.968475 -3.975345
1305031454.242671 0.011974 8.968475 -3.975345
1305031454.245935 0.083818 8.441622 -4.166928
1305031454.247079 0.083818 8.441622 -4.166928
1305031454.250716 0.287374 7.914769 -4.741677
1305031454.251812 0.287374 7.914769 -4.741677
1305031454.254992 0.443035 7.435812 -5.124843
1305031454.255961 0.443035 7.435812 -5.124843
1305031454.259711 0.526853 6.861063 -5.795383
1305031454.260701 0.526853 6.861063 -5.795383
1305031454.261941 0.526853 6.861063 -5.795383
1305031454.262947 0.526853 6.861063 -5.795383
1305031454.266719 0.526853 6.286314 -6.657506
1305031454.267812 0.526853 6.286314 -6.657506
1305031454.270953 0.526853 6.094731 -7.064620
1305031454.271929 0.526853 6.094731 -7.064620
1305031454.275693 0.478957 5.903148 -7.399890
1305031454.276861 0.478957 5.903148 -7.399890
1305031454.279824 0.287374 6.082757 -7.615421
1305031454.280819 0.287374 6.082757 -7.615421
1305031454.284459 0.191583 5.903148 -7.998586
1305031454.285531 0.191583 5.903148 -7.998586
1305031454.286721 0.191583 5.903148 -7.998586
1305031454.287765 0.191583 5.903148 -7.998586
1305031454.290942 -0.263426 6.286314 -7.807003
1305031454.292071 -0.263426 6.286314 -7.807003
1305031454.295705 -0.371192 6.286314 -7.615421
1305031454.296568 -0.371192 6.286314 -7.615421
1305031454.299808 -0.658566 6.669480 -7.136463
1305031454.301287 -0.658566 6.669480 -7.136463
1305031454.304572 -0.706462 7.244229 -6.657506
1305031454.305698 -0.706462 7.244229 -6.657506
1305031454.306946 -0.706462 7.244229 -6.657506
1305031454.307956 -0.706462 7.244229 -6.657506
1305031454.311713 -0.658566 8.010560 -5.915122
1305031454.312796 -0.658566 8.010560 -5.915122
1305031454.315959 -0.658566 8.393726 -5.172738
1305031454.317114 -0.658566 8.393726 -5.172738
1305031454.320694 -0.850149 8.728996 -4.837468
1305031454.321682 -0.850149 8.728996 -4.837468
1305031454.324855 -0.754358 8.776892 -4.550094
1305031454.325942 -0.754358 8.776892 -4.550094
1305031454.329437 -0.574749 8.585309 -4.358511
1305031454.330470 -0.574749 8.585309 -4.358511
1305031454.331696 -0.574749 8.585309 -4.358511
1305031454.332694 -0.574749 8.585309 -4.358511
1305031454.335950 -0.287374 8.728996 -4.166928
1305031454.336933 -0.287374 8.728996 -4.166928
1305031454.340563 -0.239479 8.393726 -4.454303
1305031454.341681 -0.239479 8.393726 -4.454303
1305031454.344825 -0.083818 8.058456 -4.550094
1305031454.345821 -0.083818 8.058456 -4.550094
1305031454.349590 0.107765 7.627394 -5.316426
1305031454.350705 0.107765 7.627394 -5.316426
1305031454.351827 0.107765 7.627394 -5.316426
1305031454.352841 0.107765 7.627394 -5.316426
1305031454.356690 0.191583 6.956854 -6.082757
1305031454.357700 0.191583 6.956854 -6.082757
1305031454.360959 0.095791 6.669480 -6.465923
1305031454.361944 0.095791 6.669480 -6.465923
1305031454.365572 0.011974 6.477897 -6.849089
1305031454.366687 0.011974 6.477897 -6.849089
1305031454.369945 0.107765 6.190523 -7.423838
1305031454.370930 0.107765 6.190523 -7.423838
1305031454.374588 0.011974 6.094731 -7.615421
1305031454.375558 0.011974 6.094731 -7.615421
1305031454.376831 0.011974 6.094731 -7.615421
1305031454.377824 0.011974 6.094731 -7.615421
1305031454.380882 -0.083818 6.046835 -7.807003
1305031454.381963 -0.083818 6.046835 -7.807003
1305031454.385585 -0.275400 6.094731 -7.759108
1305031454.386574 -0.275400 6.094731 -7.759108
1305031454.389959 -0.478957 6.477897 -7.088568
1305031454.390947 -0.478957 6.477897 -7.088568
1305031454.394581 -0.622644 6.861063 -6.849089
1305031454.395567 -0.622644 6.861063 -6.849089
1305031454.396840 -0.622644 6.861063 -6.849089
1305031454.397805 -0.622644 6.861063 -6.849089
1305031454.400943 -0.658566 7.052646 -5.891174
1305031454.402456 -0.658566 7.052646 -5.891174
1305031454.405690 -0.478957 7.244229 -5.316426
1305031454.406828 -0.478957 7.244229 -5.316426
1305031454.409986 -0.478957 7.435812 -4.729703
1305031454.410923 -0.478957 7.435812 -4.729703
1305031454.414689 -0.287374 7.723186 -4.166928
1305031454.415538 -0.287374 7.723186 -4.166928
1305031454.416839 -0.287374 7.723186 -4.166928
1305031454.417961 -0.287374 7.723186 -4.166928
1305031454.421594 -0.083818 7.818977 -4.310615
1305031454.422561 -0.083818 7.818977 -4.310615
1305031454.425839 0.011974 7.627394 -4.262720
1305031454.426868 0.011974 7.627394 -4.262720
1305031454.430451 0.107765 7.435812 -4.358511
1305031454.431429 0.107765 7.435812 -4.358511
1305031454.434824 0.107765 7.196333 -4.729703
1305031454.435799 0.107765 7.196333 -4.729703
1305031454.439440 -0.083818 6.956854 -5.029051
1305031454.440447 -0.083818 6.956854 -5.029051
1305031454.441828 -0.083818 6.956854 -5.029051
1305031454.442856 -0.083818 6.956854 -5.029051
1305031454.446482 -0.275400 6.382106 -5.699591
1305031454.447418 -0.275400 6.382106 -5.699591
1305031454.450843 -0.275400 6.094731 -6.178549
1305031454.451855 -0.275400 6.094731 -6.178549
1305031454.455481 -0.371192 5.903148 -6.370132
1305031454.456452 -0.371192 5.903148 -6.370132
1305031454.459697 -0.658566 5.998940 -6.992776
1305031454.460828 -0.658566 5.998940 -6.992776
1305031454.462324 -0.658566 5.998940 -6.992776
1305031454.463428 -0.658566 5.998940 -6.992776
1305031454.466694 -0.850149 5.903148 -7.423838
1305031454.467809 -0.850149 5.903148 -7.423838
1305031454.471187 -1.245289 6.286314 -7.232255
1305031454.474592 -1.616481 6.669480 -7.040672
1305031454.475557 -1.616481 6.669480 -7.040672
1305031454.476861 -1.616481 6.669480 -7.040672
1305031454.477878 -1.616481 6.669480 -7.040672
1305031454.481117 -1.616481 7.579499 -6.657506
1305031454.482438 -1.616481 7.579499 -6.657506
1305031454.485854 -1.808064 8.297935 -5.903148
1305031454.486837 -1.808064 8.297935 -5.903148
1305031454.490438 -1.412924 8.585309 -5.891174
1305031454.491407 -1.412924 8.585309 -5.891174
1305031454.494679 -1.245289 8.872683 -5.699591
1305031454.495826 -1.245289 8.872683 -5.699591
1305031454.496952 -1.245289 8.872683 -5.699591
1305031454.498316 -1.245289 8.872683 -5.699591
1305031454.501698 -1.245289 8.776892 -5.699591
1305031454.502679 -1.245289 8.776892 -5.699591
1305031454.505935 -1.053706 8.441622 -5.699591
1305031454.506934 -1.053706 8.441622 -5.699591
1305031454.510600 -1.053706 7.914769 -5.795383
1305031454.511571 -1.053706 7.914769 -5.795383
1305031454.514968 -1.053706 7.268176 -6.082757
1305031454.515971 -1.053706 7.268176 -6.082757
1305031454.519583 -1.053706 6.765271 -6.274340
1305031454.520692 -1.053706 6.765271 -6.274340
1305031454.521974 -1.053706 6.765271 -6.274340
1305031454.522966 -1.053706 6.765271 -6.274340
1305031454.526728 -1.053706 5.903148 -6.657506
1305031454.527677 -1.053706 5.903148 -6.657506
1305031454.530933 -1.053706 5.699591 -6.944880
1305031454.531928 -1.053706 5.699591 -6.944880
1305031454.535704 -1.029758 5.328400 -7.423838
1305031454.536730 -1.029758 5.328400 -7.423838
1305031454.539847 -1.053706 5.328400 -7.519629
1305031454.540804 -1.053706 5.328400 -7.519629
1305031454.544469 -1.053706 5.519982 -7.830951
1305031454.545568 -1.053706 5.519982 -7.830951
1305031454.546562 -1.053706 5.519982 -7.830951
1305031454.549863 -1.472794 5.807357 -7.807003
1305031454.550838 -1.472794 5.807357 -7.807003
1305031454.554479 -1.832012 6.094731 -7.830951
1305031454.555437 -1.832012 6.094731 -7.830951
1305031454.556712 -1.832012 6.094731 -7.830951
1305031454.557835 -1.832012 6.094731 -7.830951
1305031454.560972 -2.107412 6.765271 -7.423838
1305031454.562087 -2.107412 6.765271 -7.423838
1305031454.565829 -2.203203 7.244229 -6.944880
1305031454.566843 -2.203203 7.244229 -6.944880
1305031454.569841 -2.011621 7.603447 -6.992776
1305031454.570818 -2.011621 7.603447 -6.992776
1305031454.574578 -2.155308 7.914769 -6.657506
1305031454.575615 -2.155308 7.914769 -6.657506
1305031454.576843 -2.155308 7.914769 -6.657506
1305031454.577803 -2.155308 7.914769 -6.657506
1305031454.580960 -2.203203 8.010560 -6.465923
1305031454.581945 -2.203203 8.010560 -6.465923
1305031454.585588 -2.382812 8.058456 -6.322236
1305031454.586590 -2.382812 8.058456 -6.322236
1305031454.589874 -2.287021 8.058456 -6.178549
1305031454.590837 -2.287021 8.058456 -6.178549
1305031454.594476 -2.382812 8.297935 -6.082757
1305031454.595440 -2.382812 8.297935 -6.082757
1305031454.596705 -2.382812 8.297935 -6.082757
1305031454.597737 -2.382812 8.297935 -6.082757
1305031454.600811 -2.203203 8.489518 -6.082757
1305031454.601932 -2.203203 8.489518 -6.082757
1305031454.605569 -2.287021 8.752944 -5.891174
1305031454.606568 -2.287021 8.752944 -5.891174
1305031454.609832 -2.203203 8.585309 -5.891174
1305031454.610810 -2.203203 8.585309 -5.891174
1305031454.614453 -2.107412 8.393726 -5.699591
1305031454.615495 -2.107412 8.393726 -5.699591
1305031454.616711 -2.107412 8.393726 -5.699591
1305031454.617791 -2.107412 8.393726 -5.699591
1305031454.620936 -1.808064 8.010560 -6.082757
1305031454.622066 -1.808064 8.010560 -6.082757
1305031454.625731 -1.520689 7.627394 -6.274340
1305031454.626709 -1.520689 7.627394 -6.274340
1305031454.629857 -1.388976 7.435812 -6.465923
1305031454.630815 -1.388976 7.435812 -6.465923
1305031454.634602 -1.137524 7.148437 -6.753297
1305031454.635574 -1.137524 7.148437 -6.753297
1305031454.636828 -1.137524 7.148437 -6.753297
1305031454.637807 -1.137524 7.148437 -6.753297
1305031454.640956 -1.053706 6.849089 -7.040672
1305031454.642074 -1.053706 6.849089 -7.040672
1305031454.645741 -1.053706 6.430001 -7.447785
1305031454.646689 -1.053706 6.430001 -7.447785
1305031454.649822 -1.053706 6.094731 -7.615421
1305031454.650988 -1.053706 6.094731 -7.615421
1305031454.654481 -1.245289 5.903148 -7.423838
1305031454.655437 -1.245289 5.903148 -7.423838
1305031454.656685 -1.245289 5.903148 -7.423838
1305031454.657685 -1.245289 5.903148 -7.423838
1305031454.660831 -1.436872 6.094731 -7.136463
1305031454.661946 -1.436872 6.094731 -7.136463
1305031454.665575 -1.245289 6.477897 -7.040672
1305031454.666709 -1.245289 6.477897 -7.040672
1305031454.669978 -1.436872 6.873037 -6.561715
1305031454.670951 -1.436872 6.873037 -6.561715
1305031454.674714 -1.245289 7.615421 -6.370132
1305031454.675687 -1.245289 7.615421 -6.370132
1305031454.676937 -1.245289 7.615421 -6.370132
1305031454.677969 -1.245289 7.615421 -6.370132
1305031454.681576 -1.245289 8.106352 -6.082757
1305031454.682561 -1.245289 8.106352 -6.082757
1305031454.685943 -1.245289 8.441622 -5.843279
1305031454.686936 -1.245289 8.441622 -5.843279
1305031454.690698 -1.245289 8.681100 -5.508009
1305031454.691696 -1.245289 8.681100 -5.508009
1305031454.694826 -1.436872 8.872683 -5.124843
1305031454.695946 -1.436872 8.872683 -5.124843
1305031454.699434 -1.412924 9.160058 -5.076947
1305031454.700570 -1.412924 9.160058 -5.076947
1305031454.701824 -1.412924 9.160058 -5.076947
1305031454.702833 -1.412924 9.160058 -5.076947
1305031454.705963 -1.089628 9.351641 -4.741677
1305031454.706953 -1.089628 9.351641 -4.741677
1305031454.710600 -0.957915 9.351641 -4.645885
1305031454.711576 -0.957915 9.351641 -4.645885
1305031454.714867 -0.658566 9.160058 -4.645885
1305031454.715840 -0.658566 9.160058 -4.645885
1305031454.719525 -0.646592 9.064266 -4.789573
1305031454.720439 -0.646592 9.064266 -4.789573
1305031454.721709 -0.646592 9.064266 -4.789573
1305031454.722709 -0.646592 9.064266 -4.789573
1305031454.726133 -0.287374 8.585309 -5.124843
1305031454.727487 -0.287374 8.585309 -5.124843
1305031454.730697 -0.239479 8.202143 -5.412217
1305031454.731817 -0.239479 8.202143 -5.412217
1305031454.734829 0.011974 7.914769 -5.508009
1305031454.735969 0.011974 7.914769 -5.508009
1305031454.739594 0.107765 7.435812 -6.082757
1305031454.740575 0.107765 7.435812 -6.082757
1305031454.741819 0.107765 7.435812 -6.082757
1305031454.742798 0.107765 7.435812 -6.082757
1305031454.745944 0.095791 7.052646 -5.939070
1305031454.747002 0.095791 7.052646 -5.939070
1305031454.750584 0.191583 6.669480 -6.082757
1305031454.751711 0.191583 6.669480 -6.082757
1305031454.754836 0.478957 6.573688 -6.274340
1305031454.755933 0.478957 6.573688 -6.274340
1305031454.759456 0.443035 6.861063 -6.274340
1305031454.760581 0.443035 6.861063 -6.274340
1305031454.761801 0.443035 6.861063 -6.274340
